Shimmer_5F42_TimestampSync_Unix_CAL,Shimmer_5F42_Accel_WR_X_CAL,Shimmer_5F42_Accel_WR_Y_CAL,Shimmer_5F42_Accel_WR_Z_CAL,Shimmer_5F42_Gyro_X_CAL,Shimmer_5F42_Gyro_Y_CAL,Shimmer_5F42_Gyro_Z_CAL,Shimmer_5F42_Mag_X_CAL,Shimmer_5F42_Mag_Y_CAL,Shimmer_5F42_Mag_Z_CAL,Shimmer_5F42_Quat_Madge_9DOF_W_WR_CAL,Shimmer_5F42_Quat_Madge_9DOF_X_WR_CAL,Shimmer_5F42_Quat_Madge_9DOF_Y_WR_CAL,Shimmer_5F42_Quat_Madge_9DOF_Z_WR_CAL,
1.5825467836590942E12,0.9072411729503291,9.47935368043088,3.2076600837821663,-0.41371052237688966,-0.424187995809011,0.8103577308786111,-0.3868065967016492,0.20089955022488756,0.24737631184407796,-0.1217020416738212,-0.1546220151844304,-0.563846354354254,-0.8020959631828016,
1.582546783678615E12,0.9622980251346499,9.464991023339318,3.2052663076002395,-0.3975452776530459,-0.2754078730728936,0.6457117198024247,-0.383808095952024,0.21889055472263869,0.2383808095952024,-0.12150464839449135,-0.15457895469896227,-0.5639583757288913,-0.8020554330144132,
1.5825467836981357E12,0.9551166965888689,9.46259724715739,3.222022740873728,-0.6166741505762611,-0.21374045801526717,0.4304744798682833,-0.38980509745127434,0.2128935532233883,0.239880059970015,-0.12138431764639417,-0.15448551631866395,-0.5639884381145057,-0.8020705170684406,
1.5825467837176565E12,0.9503291442250149,9.450628366247756,3.229204069419509,-0.6747492890285887,0.04580152671755725,0.6124831612034125,-0.38830584707646176,0.2128935532233883,0.24587706146926536,-0.12133142539331652,-0.15445063659018063,-0.5639106579834199,-0.8021399228822987,
1.5825467837371772E12,0.931178934769599,9.476959904248952,3.226810293237582,-0.9226163747941923,-0.21493788355036647,0.6100883101332135,-0.38530734632683655,0.21589205397301348,0.2518740629685157,-0.12143785582923344,-0.15449324323949584,-0.5637588282995469,-0.8022223310774028,
1.582546783756698E12,0.935966487133453,9.45541591861161,3.233991621783363,-0.6873222571471337,0.030833707528813214,0.6058973207603652,-0.3823088455772114,0.2143928035982009,0.239880059970015,-0.12133865089256068,-0.15437553859532088,-0.5637454021237548,-0.8022694350823193,
1.5825467837762188E12,0.933572710951526,9.453022142429683,3.233991621783363,-0.9845831462355934,-0.2020655590480469,0.8157461457865588,-0.39430284857571213,0.20689655172413793,0.23238380809595202,-0.12110404228854266,-0.15416384261579907,-0.5637827104341528,-0.8023193728103705,
1.5825467837957397E12,0.8976660682226212,9.491322561340514,3.210053859964093,-0.8031731776680135,-0.6936087412064058,0.4867534800179615,-0.3823088455772114,0.2143928035982009,0.24437781109445278,-0.1212283990311712,-0.1541319858600865,-0.5637759241373338,-0.8023114816368144,
1.5825467838152605E12,0.9766606822262118,9.460203470975463,3.233991621783363,-0.6442149378835502,-0.1389013620715461,0.4807663523424636,-0.3913043478260869,0.20539730134932532,0.2563718140929535,-0.12137147408496292,-0.15432858844441966,-0.5635531941107299,-0.8024085302854091,
1.5825467838347812E12,0.9503291442250149,9.436265709156194,3.2363853979652903,-0.60619667714414,-0.19877263882652313,0.637928453824278,-0.3823088455772114,0.21139430284857572,0.24137931034482757,-0.12130692310605026,-0.1543138249201762,-0.5634981601901603,-0.8024597792458839,
1.582546783854302E12,0.9622980251346499,9.460203470975463,3.2435667265110713,-0.7199521029785962,0.4936386768447834,0.9767998802574462,-0.39280359820089955,0.19790104947526235,0.2383808095952024,-0.12109903149857687,-0.15420558653884764,-0.5634523744520761,-0.8025441317302335,
1.5825467838738228E12,0.940754039497307,9.486535008976661,3.229204069419509,-0.8244274809160305,-0.11225864391558137,0.5247717407573717,-0.3913043478260869,0.21139430284857572,0.239880059970015,-0.12099061045887725,-0.1540726008751776,-0.5634912406172627,-0.8025587377805841,
1.5825467838933435E12,0.9599042489527229,9.484141232794734,3.2172351885098744,-0.7049842837898518,0.05987127675497702,0.5460260440053886,-0.38530734632683655,0.2128935532233883,0.24437781109445278,-0.12092793275758666,-0.1540612729130954,-0.5634861111255969,-0.8025739603525178,
1.5825467839128643E12,0.952722920406942,9.453022142429683,3.2196289646918013,-0.9202215237239936,0.15776081424936358,0.5080077832659782,-0.38080959520239877,0.2128935532233883,0.2353823088455772,-0.12076113413084143,-0.15391883495127212,-0.5635177968698808,-0.8026041573164145,
1.582546783932385E12,0.933572710951526,9.436265709156194,3.241172950329144,-0.6711570124232898,-0.14428977697949388,0.37778775632390355,-0.39280359820089955,0.21139430284857572,0.25037481259370314,-0.12084599155931279,-0.1538949126061663,-0.5634040660886744,-0.8026758128364999,
1.5825467839519058E12,0.9766606822262118,9.460203470975463,3.245960502692998,-0.6870229007633587,-0.26463104325699716,0.7843137254901961,-0.38530734632683655,0.2083958020989505,0.24437781109445278,-0.12079219821008347,-0.1539944415178804,-0.5632888702801591,-0.8027456667286809,
1.5825467839714265E12,0.9503291442250149,9.47935368043088,3.222022740873728,-0.6936087412064063,0.15626403233048963,0.5684777727885045,-0.38980509745127434,0.2098950524737631,0.24137931034482757,-0.12068026145892766,-0.15389335822432815,-0.5633311251842419,-0.8027522358656497,
1.5825467839909473E12,0.9575104727707959,9.467384799521245,3.233991621783363,-0.7238437359676694,-0.07783265978146978,0.5603951504265827,-0.39280359820089955,0.2128935532233883,0.24287856071964017,-0.12057023394123406,-0.15382358684150904,-0.5633375125415682,-0.8027776589953456,
1.5825467840104683E12,0.9575104727707959,9.460203470975463,3.2363853979652903,-0.6678640922017661,-0.26313426133812323,0.4352641820086814,-0.3823088455772114,0.20389805097451275,0.2353823088455772,-0.12050227609136098,-0.15376827665870746,-0.5633357479969074,-0.8027996970471386,
1.582546784029989E12,0.9742669060442848,9.45541591861161,3.238779174147217,-0.7816195180362221,-0.20386169735069587,0.3062415806017066,-0.383808095952024,0.2098950524737631,0.2353823088455772,-0.12037420139595793,-0.15369134329387343,-0.5633435731004566,-0.8028281517742266,
1.5825467840495098E12,0.952722920406942,9.474566128067025,3.233991621783363,-0.6463104325699746,-0.4190989372848374,0.5262685226762458,-0.38830584707646176,0.20239880059970014,0.24287856071964017,-0.12041418235154239,-0.15372988987605293,-0.563288543724296,-0.8028533877092803,
1.5825467840690305E12,0.9455415918611609,9.484141232794734,3.2052663076002395,-0.5642867834156563,-0.3945517138152971,0.21912887292321492,-0.39280359820089955,0.21889055472263869,0.2518740629685157,-0.12049624638012749,-0.1537602967755131,-0.5633191440320215,-0.8028137814654382,
1.5825467840885513E12,0.9646918013165768,9.450628366247756,3.26032315978456,-0.9148331088160455,0.4298757671007334,0.4379583894626549,-0.3778110944527736,0.2098950524737631,0.24437781109445278,-0.120497211612179,-0.15373712148184104,-0.5631382875031652,-0.8029449474404643,
1.582546784108072E12,0.9670855774985039,9.45541591861161,3.229204069419509,-0.7265379434216435,0.6472085017212994,0.5250710971411467,-0.38980509745127434,0.21739130434782608,0.24887556221889054,-0.12039038202688444,-0.15367069780126874,-0.5631047527019681,-0.8029972042523853,
1.5825467841275928E12,0.933572710951526,9.4721723518851,3.250748055056852,-0.39425235743152215,0.14249363867684448,0.520580751384523,-0.38830584707646176,0.2128935532233883,0.24137931034482757,-0.12030407563335069,-0.15352492690315606,-0.5631532533042786,-0.8030040096401716,
1.5825467841471135E12,0.9455415918611609,9.448234590065828,3.26032315978456,-0.6798383475527616,0.03382727136656193,0.32180811255800007,-0.3868065967016492,0.20539730134932532,0.239880059970015,-0.12028203225129326,-0.15341467368837736,-0.5630944631549247,-0.8030696085513727,
1.5825467841666343E12,0.9622980251346499,9.467384799521245,3.253141831238779,-0.5807513845232749,0.35204310731926364,-0.02813950007483883,-0.38830584707646176,0.2128935532233883,0.2368815592203898,-0.12013909845691564,-0.1531928729398396,-0.5631663807982967,-0.8030829149228277,
1.582546784186155E12,0.952722920406942,9.46259724715739,3.2315978456014363,-0.39305493189642265,0.22092501122586436,0.28109564436461626,-0.3868065967016492,0.21889055472263869,0.25337331334332835,-0.12020442933009452,-0.15322718824866866,-0.5631168191869821,-0.8031013459704631,
1.582546784205676E12,0.952722920406942,9.443447037701974,3.245960502692998,-0.4915431821583594,0.291872474180512,0.3071396497530309,-0.39280359820089955,0.2143928035982009,0.24437781109445278,-0.12011143220054851,-0.15310512572290041,-0.5631304265903087,-0.8031289977209919,
1.5825467842251968E12,0.947935368043088,9.436265709156194,3.229204069419509,-0.17482412812453216,0.040413111809609464,0.31612034126627736,-0.38980509745127434,0.22188905547226387,0.24437781109445278,-0.12000496594961242,-0.1530150425949903,-0.563233580678785,-0.8030897449742713,
1.5825467842447175E12,0.9646918013165768,9.45541591861161,3.2483542788749253,-0.3254003891632988,0.23439604849573403,0.2161353090854665,-0.3748125937031484,0.21739130434782608,0.24437781109445278,-0.1200052512238894,-0.15302713380449773,-0.5631857735159329,-0.8031209252083598,
1.5825467842642383E12,0.935966487133453,9.467384799521245,3.2315978456014363,-0.16943571321658418,-0.21164496332884314,0.2266127825175869,-0.38530734632683655,0.21739130434782608,0.25037481259370314,-0.12011384655391405,-0.15306381933591745,-0.5631904057328552,-0.8030944514605901,
1.582546784283759E12,0.9503291442250149,9.484141232794734,3.2315978456014363,-0.13171680886094897,0.09250112258643921,0.5343511450381679,-0.38830584707646176,0.2128935532233883,0.24737631184407796,-0.12009077401293601,-0.15307910034146016,-0.5632326046351943,-0.803065394666884,
1.5825467843032798E12,0.9790544584081388,9.481747456612807,3.2196289646918013,-0.26283490495434797,-0.27361173477024375,-0.06496033527914986,-0.3823088455772114,0.2128935532233883,0.2353823088455772,-0.11998804505257898,-0.15302568669623842,-0.5633835359830094,-0.802985055675936,
1.5825467843228005E12,0.9766606822262118,9.438659485338121,3.238779174147217,-0.4963328842987577,-0.707079778476276,-0.04400538841490806,-0.3823088455772114,0.20389805097451275,0.2518740629685157,-0.12026990340313459,-0.1532811162236981,-0.5631730202373995,-0.8030418413889174,
1.5825467843423213E12,0.9718731298623579,9.45541591861161,3.2363853979652903,-0.454123634186499,-0.7531806615776082,-0.4981290226014069,-0.38980509745127434,0.2098950524737631,0.24737631184407796,-0.12045070453408155,-0.153346006842307,-0.5631353375069199,-0.8030287800656525,
1.582546784361842E12,0.9790544584081388,9.474566128067025,3.238779174147217,-0.4765753629696151,-0.47447986828319133,-0.3729980541835054,-0.383808095952024,0.20239880059970014,0.2383808095952024,-0.12052088167357602,-0.15334444067720324,-0.5631462786540294,-0.8030108769077402,
1.5825467843813628E12,0.9886295631358468,9.400359066427288,3.233991621783363,-0.5624906451130068,-0.7573716509504563,-0.3682083520431073,-0.3868065967016492,0.20539730134932532,0.24737631184407796,-0.12070025571949208,-0.15349836874138367,-0.5630125507877208,-0.8030482966288438,
1.5825467844008835E12,0.9168162776780371,9.41472172351885,3.229204069419509,-0.7181559646759469,0.2784014369106423,-0.6819338422391859,-0.39430284857571213,0.21139430284857572,0.24587706146926536,-0.12082038640080633,-0.15323308282102843,-0.5630339585005067,-0.8030658865462865,
1.5825467844204045E12,1.0388988629563136,9.460203470975463,3.2555356074207062,-0.4981290226014069,0.3011525220775332,-0.2999550965424337,-0.38980509745127434,0.21739130434782608,0.24287856071964017,-0.12063394448460822,-0.15322340599325843,-0.563039340960226,-0.8030919871502791,
1.5825467844399253E12,0.9766606822262118,9.481747456612807,3.28426092160383,-0.36970513396198157,0.2936686124831614,-0.47328244274809156,-0.4002998500749625,0.20689655172413793,0.2383808095952024,-0.1205155288017166,-0.15297180002853114,-0.5631024458987003,-0.8031134858390656,
1.582546784459446E12,0.9766606822262118,9.491322561340514,3.26032315978456,-0.3256997455470736,0.40203562340966936,-0.7516838796587337,-0.3913043478260869,0.21139430284857572,0.24137931034482757,-0.12049023211746006,-0.15277637303611186,-0.5631774095521381,-0.8031019170543391,
1.5825467844789668E12,0.9575104727707959,9.42429682824656,3.245960502692998,-0.19368358030234964,0.2020655590480469,-0.4358628947762311,-0.39280359820089955,0.20539730134932532,0.2353823088455772,-0.12039364455720163,-0.15255479818612114,-0.5632881266507948,-0.8030808740561962,
1.5825467844984875E12,0.9814482345900658,9.464991023339318,3.2363853979652903,-0.06226612782517576,0.5121987726388267,-0.17572219727585697,-0.3913043478260869,0.20539730134932532,0.239880059970015,-0.12027541111346161,-0.15244916758101654,-0.5633868879471868,-0.8030493703842417,
1.5825467845180083E12,0.935966487133453,9.467384799521245,3.241172950329144,-0.22421793144738802,0.4322706181709325,-0.2891782667265379,-0.38080959520239877,0.20389805097451275,0.24587706146926536,-0.1204337158294488,-0.1524006482988546,-0.5633435381095881,-0.8030652654422127,
1.582546784537529E12,0.8976660682226212,9.4721723518851,3.226810293237582,-0.3529411764705881,0.5121987726388267,-0.09399790450531367,-0.38830584707646176,0.2143928035982009,0.24287856071964017,-0.12043945969313137,-0.15215693146587225,-0.5634566511155242,-0.8030312615766554,
1.5825467845570498E12,0.8976660682226212,9.481747456612807,3.233991621783363,-0.25056129321957776,0.8157461457865589,0.5774584643017513,-0.3823088455772114,0.2128935532233883,0.24737631184407796,-0.12044418483436263,-0.15204897764302633,-0.563467334025053,-0.8030435045649743,
1.5825467845765706E12,0.8856971873129862,9.50329144225015,3.226810293237582,-0.2023649154318216,0.6310432569974556,0.6088908845981141,-0.38530734632683655,0.21739130434782608,0.24287856071964017,-0.12035384231006335,-0.15185547841812377,-0.5636056223070722,-0.8029966181868172,
1.5825467845960913E12,0.9096349491322561,9.441053261520048,3.253141831238779,-0.3577308786109863,-0.024547223469540292,0.5825475228259243,-0.3868065967016492,0.21739130434782608,0.25037481259370314,-0.12041065556299056,-0.15188161944564327,-0.5635076611628781,-0.8030519058642489,
1.582546784615612E12,0.9790544584081388,9.45541591861161,3.2675044883303412,-0.2975602454722346,0.4705882352941175,1.1686873222571468,-0.39730134932533734,0.21739130434782608,0.24887556221889054,-0.12014243150394291,-0.15195081731099844,-0.5634378607118675,-0.80312796140296,
1.582546784635133E12,0.93836026331538,9.460203470975463,3.277079593058049,0.20655590480466998,0.2565484208950757,1.2282592426283492,-0.3913043478260869,0.21589205397301348,0.25337331334332835,-0.1200686087551093,-0.15206909348280948,-0.5633468482651344,-0.8031804582711589,
1.5825467846546538E12,0.943147815679234,9.448234590065828,3.257929383602633,0.5373447088759169,-0.0038916329890734238,1.0701990719952101,-0.383808095952024,0.20539730134932532,0.2518740629685157,-0.12012479583418649,-0.15230140661105712,-0.5632616486143148,-0.803187792592973,
1.5825467846741746E12,0.9599042489527229,9.443447037701974,3.26032315978456,0.21643466546924106,0.4217931447388115,1.4497829666217632,-0.39430284857571213,0.20539730134932532,0.2383808095952024,-0.11978517935510459,-0.15227995129817704,-0.5633339636761713,-0.8031918653773731,
1.5825467846936953E12,0.9551166965888689,9.46259724715739,3.241172950329144,0.2685226762460709,0.6576859751534199,1.4521778176919624,-0.3913043478260869,0.2098950524737631,0.24137931034482757,-0.1194725627886253,-0.15226277857924503,-0.5634395038927774,-0.8031676527681544,
1.582546784713216E12,0.9599042489527229,9.46259724715739,3.2435667265110713,0.3155216284987278,0.7214488848974704,1.2516090405627898,-0.3868065967016492,0.21589205397301348,0.239880059970015,-0.11914592753984297,-0.152206159724498,-0.5635700623007173,-0.8031353047718404,
1.5825467847327368E12,0.9814482345900658,9.441053261520048,3.262716935966487,0.22302050591228859,1.5518634934889988,1.271965274659482,-0.39280359820089955,0.22038980509745126,0.24887556221889054,-0.11879397322813672,-0.1521364450705917,-0.5635732597178479,-0.8031984032211188,
1.5825467847522576E12,0.9814482345900658,9.469778575703172,3.2363853979652903,-0.20835204310731928,1.7799730579254602,1.597066307439006,-0.39430284857571213,0.22788605697151423,0.2353823088455772,-0.11812928294516006,-0.15185148503978685,-0.5637882049506383,-0.8031995137950537,
1.5825467847717783E12,0.9622980251346499,9.457809694793536,3.269898264512268,-0.3215087561742255,1.1067205508157463,1.1216883700044902,-0.3913043478260869,0.2143928035982009,0.2353823088455772,-0.11775145047815397,-0.1516242236676089,-0.5638268325127448,-0.8032708096564514,
1.582546784791299E12,0.9862357869539198,9.450628366247756,3.222022740873728,0.12662775033677595,0.8690315820984884,1.0258943271965273,-0.38080959520239877,0.21739130434782608,0.24137931034482757,-0.11749795091563331,-0.1516413011892288,-0.5638914564145313,-0.8032593433549117,
1.5825467848108198E12,0.9790544584081388,9.469778575703172,3.279473369239976,-0.056578356533453035,0.4580152671755725,0.7271366561891932,-0.3913043478260869,0.21589205397301348,0.24587706146926536,-0.11738025669883287,-0.15163251186959917,-0.5638182108287322,-0.8033296221472973,
1.5825467848303406E12,0.9790544584081388,9.4721723518851,3.269898264512268,-0.2484657985331537,-0.2559497081275256,0.49483610237988335,-0.383808095952024,0.2083958020989505,0.24737631184407796,-0.11749460207364598,-0.1517976229404863,-0.563643275733883,-0.8034044796197938,
1.5825467848498616E12,1.0173548773189707,9.438659485338121,3.241172950329144,-0.3289926657685975,-0.51549169286035,0.36132315521628516,-0.38530734632683655,0.21139430284857572,0.239880059970015,-0.11742871017292747,-0.15194855971403803,-0.5635954593043387,-0.8034191256619945,
1.5825467848693823E12,0.9958108916816277,9.45541591861161,3.2555356074207062,0.01736267025894332,-0.04011375542583442,0.542134411016315,-0.37631184407796103,0.2083958020989505,0.24437781109445278,-0.11747979990262082,-0.15213145859064986,-0.5634797528343048,-0.8034582030620586,
1.582546784888903E12,1.0053859964093357,9.441053261520048,3.272292040694195,-0.011674898967220489,-0.04430474479868289,0.3900613680586739,-0.39280359820089955,0.2128935532233883,0.24737631184407796,-0.11744949095078921,-0.15221867716202536,-0.5633939234713015,-0.8035063026473763,
1.5825467849084238E12,1.0029922202274086,9.443447037701974,3.2675044883303412,0.2517587187546775,-0.16793893129770993,0.28708277204011395,-0.38530734632683655,0.21589205397301348,0.24887556221889054,-0.11749322438128472,-0.15236656199434012,-0.5633192239895148,-0.803524252835199,
1.5825467849279446E12,1.0005984440454818,9.45541591861161,3.281867145421903,-0.029037569226163698,0.032929202215237666,0.3379733572818442,-0.38980509745127434,0.2128935532233883,0.24437781109445278,-0.11744624046839942,-0.15238894719823606,-0.5632596207709916,-0.8035686585355173,
1.5825467849474653E12,0.9982046678635548,9.453022142429683,3.277079593058049,0.23409669211195933,0.08621463852716671,0.33947013920071833,-0.38980509745127434,0.21589205397301348,0.25037481259370314,-0.1174665675103875,-0.1524738051311348,-0.5631906908426514,-0.8035979031918498,
1.582546784966986E12,0.9982046678635548,9.443447037701974,3.262716935966487,0.002694207453973892,-0.15446789402784025,0.22661278251758696,-0.38830584707646176,0.21589205397301348,0.24137931034482757,-0.11739202032926618,-0.15246745566406864,-0.5632166659360428,-0.8035917967091416,
1.5825467849865068E12,1.0005984440454818,9.445840813883901,3.245960502692998,0.4008381978745697,-0.9935638377488397,0.29516539440203543,-0.38830584707646176,0.21139430284857572,0.239880059970015,-0.11738077073967287,-0.15260071335177636,-0.5633057790004726,-0.8035056790650333,
1.5825467850060276E12,1.0317175344105325,9.46259724715739,3.26032315978456,0.19458164945367454,-1.1037269869779975,0.16374794192486145,-0.38980509745127434,0.2083958020989505,0.24287856071964017,-0.11742275832046029,-0.15282723380601815,-0.5632893688179034,-0.8034679952632486,
1.5825467850255483E12,1.0125673249551166,9.4721723518851,3.269898264512268,0.5116000598712768,-0.9103427630594222,0.33767400089806904,-0.3868065967016492,0.22038980509745126,0.2383808095952024,-0.1173121286453656,-0.15290375112809293,-0.5634128282170597,-0.8033830296714671,
1.582546785045069E12,0.9838420107719928,9.460203470975463,3.262716935966487,0.25445292620865145,-0.26193683580302346,0.5819488100583744,-0.3868065967016492,0.21139430284857572,0.24887556221889054,-0.11739333699567205,-0.1530292618927526,-0.5633479746175661,-0.8033927488643805,
1.58254678506459E12,1.0077797725912627,9.453022142429683,3.265110712148414,0.27870079329441705,-0.05807513845232761,0.5508157461457863,-0.3868065967016492,0.22338830584707645,0.24437781109445278,-0.11726242952979264,-0.153058508065811,-0.5633876418773276,-0.8033784791176216,
1.5825467850841108E12,1.0221424296828245,9.443447037701974,3.26032315978456,0.08950755874869026,0.06555904804669985,0.5753629696153268,-0.38830584707646176,0.2143928035982009,0.2383808095952024,-0.11705983865352056,-0.15304643249779576,-0.5634312717078841,-0.8033797269882691,
1.5825467851036316E12,1.0077797725912627,9.443447037701974,3.26032315978456,0.29336925609938636,-0.6064960335279148,0.6035024696901664,-0.3778110944527736,0.2128935532233883,0.24737631184407796,-0.11716514049756271,-0.15329645451176407,-0.5633198935639228,-0.8033948122818815,
1.5825467851231523E12,1.0676241771394375,9.443447037701974,3.269898264512268,0.2517587187546775,-0.6502020655590481,0.19009130369705116,-0.39280359820089955,0.21589205397301348,0.2368815592203898,-0.11695704642084358,-0.15337214794318446,-0.5633904789657787,-0.8033611900873211,
1.582546785142673E12,1.0005984440454818,9.45541591861161,3.257929383602633,0.14039814399042064,-0.8549618320610687,0.19697650052387394,-0.38830584707646176,0.22788605697151423,0.2518740629685157,-0.11706249288940292,-0.15351151937909732,-0.563358655817883,-0.8033415283000797,
1.5825467851621938E12,0.9982046678635548,9.4721723518851,3.250748055056852,-0.1580601706331388,-0.5996108367010927,0.07783265978146955,-0.3823088455772114,0.22488755622188905,0.24137931034482757,-0.11706000596825873,-0.153500460344454,-0.5634110304419485,-0.8033072727500317,
1.5825467851817146E12,1.0460801915020945,9.457809694793536,3.265110712148414,-0.5714713366262534,0.39006136805867403,0.061068702290076333,-0.38530734632683655,0.2143928035982009,0.24287856071964017,-0.11698232860678351,-0.1534865532912559,-0.5633046615099073,-0.8033958371025542,
1.5825467852012354E12,1.0365050867743866,9.460203470975463,3.272292040694195,-0.3933542882801976,0.9157311779673699,0.31013321359078,-0.383808095952024,0.20689655172413793,0.24587706146926536,-0.11694688339994007,-0.1534855694394504,-0.5631442413911728,-0.8035136400988158,
1.582546785220756E12,0.9934171154997008,9.448234590065828,3.2986235786953917,-1.411465349498578,2.165544080227511,-0.13201616524472395,-0.3823088455772114,0.22188905547226387,0.24437781109445278,-0.1168283102889165,-0.15306947294416295,-0.5629341397311938,-0.8037574489189719,
1.5825467852402769E12,1.1202872531418313,9.438659485338121,3.3800119688809094,-5.47223469540488,10.454722346954048,-0.30564286783415673,-0.38830584707646176,0.2143928035982009,0.24287856071964017,-0.11585146216742646,-0.15165058880578042,-0.5621269524917122,-0.8047321460653288,
1.5825467852597976E12,1.1178934769599043,9.508078994614003,3.4039497307001794,-6.037120191588086,15.06540936985481,0.07603652147882037,-0.39730134932533734,0.21589205397301348,0.23238380809595202,-0.11419194238533029,-0.14944211875159558,-0.5615514751289145,-0.8057835901889784,
1.5825467852793186E12,0.9239976062238181,9.220825852782765,3.2986235786953917,-3.5027690465499175,11.538691812602902,1.1600059871276753,-0.38980509745127434,0.20389805097451275,0.23238380809595202,-0.11304313635608071,-0.1476816093594795,-0.5612358389265057,-0.8064897548538579,
1.5825467852988394E12,1.0053859964093357,9.388390185517654,3.3345302214242967,-3.0752881305193833,11.691363568328093,1.8775632390360721,-0.39430284857571213,0.2128935532233883,0.2383808095952024,-0.11168119825939182,-0.14619620561103003,-0.5609824808336042,-0.8071261584275773,
1.58254678531836E12,1.0748055056852184,9.390783961699581,3.4135248354278875,-2.5562041610537345,13.874569675198323,2.3203113306391256,-0.3868065967016492,0.21889055472263869,0.24437781109445278,-0.11006044915199364,-0.1447186573109627,-0.56055890347026,-0.8079089821872221,
1.5825467853378809E12,1.1131059245960502,9.340514661879114,3.4446439257929384,-3.1058224816644215,17.96617272863344,3.129471635982637,-0.3868065967016492,0.22038980509745126,0.24137931034482757,-0.10785861439530256,-0.1428065318330621,-0.5600505468372126,-0.8088981386762347,
1.5825467853574016E12,0.9790544584081388,9.275882704967085,3.3153800119688808,-0.2050591228857955,14.989073491992215,3.5874869031582097,-0.3823088455772114,0.2083958020989505,0.2353823088455772,-0.10604004510157441,-0.14120587378553148,-0.5601635427911228,-0.8093412230765332,
1.5825467853769224E12,0.9000598444045481,9.36684619988031,3.312986235786954,1.6575362969615326,11.370752881305194,2.900464002394851,-0.36881559220389803,0.21739130434782608,0.2368815592203898,-0.10481871265566806,-0.13999382114445946,-0.5605318952657259,-0.8094558430874378,
1.582546785396443E12,0.952722920406942,9.37642130460802,3.3608617594254935,2.9399790450531356,9.92037120191588,2.6714563688070645,-0.37631184407796103,0.21739130434782608,0.23238380809595202,-0.10356406475880695,-0.13899758514979063,-0.5610030288433745,-0.8094626349880024,
1.5825467854159639E12,1.0125673249551166,9.371633752244165,3.3680430879712744,3.230055380930998,8.485256698099086,2.8088609489597363,-0.38080959520239877,0.2128935532233883,0.23238380809595202,-0.10236259639985437,-0.1383594843177349,-0.5614016656309226,-0.809448405881707,
1.5825467854354846E12,0.935966487133453,9.445840813883901,3.3680430879712744,3.214788205358479,5.721897919473132,2.167639574913935,-0.383808095952024,0.22038980509745126,0.22938530734632684,-0.10154530586965747,-0.13778704013317167,-0.5619125727688199,-0.8092944723594147,
1.5825467854550054E12,0.9646918013165768,9.4721723518851,3.324955116696589,3.168986678640922,3.416554408022751,1.3890136207154615,-0.3823088455772114,0.21589205397301348,0.23238380809595202,-0.10111556821176677,-0.13761809491123378,-0.5623864676672938,-0.8090478124331825,
1.5825467854745261E12,1.0388988629563136,9.450628366247756,3.320167564332735,2.6041011824577156,3.355485705732675,1.282143391707828,-0.3793103448275862,0.22488755622188905,0.22788605697151423,-0.10049636363565691,-0.13751794328966538,-0.5628004347802757,-0.8088541072285675,
1.582546785494047E12,0.9072411729503291,9.273488928785158,3.6026331538001197,3.352192785511151,2.2409818889387814,0.9767998802574462,-0.3748125937031484,0.22338830584707645,0.22638680659670163,-0.10029540256743603,-0.137131494412665,-0.5625554435336937,-0.8091150464640947,
1.5825467855135679E12,1.2495511669658887,9.309395571514063,3.202872531418312,5.107917976350845,4.363119293518934,2.060769345906301,-0.3823088455772114,0.2143928035982009,0.22038980509745126,-0.09902938345290335,-0.1374344110215812,-0.5633819830615884,-0.8086443625238978,
1.5825467855330886E12,0.9120287253141831,9.388390185517654,3.296229802513465,5.825475228259243,1.6608292171830563,2.4882502619368356,-0.383808095952024,0.22938530734632684,0.22938530734632684,-0.09855752567736785,-0.13742971271062068,-0.5641887694840924,-0.8081401614724124,
1.5825467855526094E12,0.9551166965888689,9.393177737881508,3.33213644524237,6.298757671007334,2.9127376141296213,3.327944918425385,-0.3823088455772114,0.21889055472263869,0.22938530734632684,-0.09788843823994574,-0.13747053685197935,-0.5648609401027461,-0.8077449000165925,
1.5825467855721301E12,1.0029922202274086,9.405146618791143,3.320167564332735,7.092650800778326,3.7676994461906896,4.289776979494087,-0.3778110944527736,0.2128935532233883,0.22638680659670163,-0.09696050598431258,-0.13761058648008298,-0.5655882992890086,-0.8073238894491112,
1.582546785591651E12,1.0173548773189707,9.393177737881508,3.274685816876122,8.558299655740159,4.546325400389162,4.442448735219279,-0.38080959520239877,0.22188905547226387,0.21889055472263869,-0.09570163767704937,-0.13755551215988893,-0.5667041842827004,-0.8067007159640064,
1.5825467856111716E12,1.0724117295032913,9.37642130460802,3.2986235786953917,10.298757671007335,4.469989522526567,4.854662475677294,-0.383808095952024,0.22338830584707645,0.22038980509745126,-0.09431597657173285,-0.13767129039672565,-0.5678863576613576,-0.8060125291494774,
1.5825467856306924E12,1.0915619389587072,9.28785158587672,3.3273488928785158,11.810208052686724,2.9127376141296213,5.480616674150577,-0.38980509745127434,0.22488755622188905,0.21739130434782608,-0.0928858320991095,-0.13801407208032154,-0.5690867326944603,-0.8052730150540296,
1.5825467856502131E12,1.1178934769599043,9.26391382405745,3.281867145421903,13.459063014518785,2.469989522526568,6.518784613081874,-0.3793103448275862,0.22038980509745126,0.22188905547226387,-0.09149146644739682,-0.13873608701894943,-0.5703287436223503,-0.8044294462065189,
1.582546785669734E12,1.0484739676840216,9.378815080789947,3.2076600837821663,14.237688968717258,2.714264331686873,7.816494536745996,-0.3793103448275862,0.22488755622188905,0.21139430284857572,-0.08984843909022022,-0.13921554337174544,-0.5720019310563527,-0.8033430657848265,
1.582546785689255E12,1.0676241771394375,9.47935368043088,3.1119090365050868,15.504864541236342,4.821134560694506,9.57221972758569,-0.37181409295352325,0.22638680659670163,0.22038980509745126,-0.08795587171085409,-0.1397988414322767,-0.5738414494456935,-0.802138416648799,
1.5825467857087756E12,1.1226810293237581,9.429084380610412,3.030520646319569,17.077383625205805,7.630294866038017,11.495883849723095,-0.3793103448275862,0.21739130434782608,0.22038980509745126,-0.08549015573182038,-0.14032057332282485,-0.5758679623540843,-0.8008605745755359,
1.5825467857282964E12,1.2256134051466188,9.333333333333334,3.0999401555954518,19.459063014518783,9.676096392755575,12.74779224666966,-0.3823088455772114,0.21889055472263869,0.21589205397301348,-0.08243815161622645,-0.1407817079495859,-0.5778935070843454,-0.7996396415477743,
1.5825467857478171E12,1.2663076002393776,9.268701376421305,3.087971274685817,22.146085915282143,9.828768148480766,14.07603652147882,-0.3748125937031484,0.22038980509745126,0.2098950524737631,-0.079098797494505,-0.14137827013250437,-0.5801063707164619,-0.7982682278679509,
1.582546785767338E12,1.2567324955116697,9.352483542788748,3.0592459605026927,24.100284388564585,9.447088759167789,15.175273162700194,-0.383808095952024,0.22338830584707645,0.21139430284857572,-0.07571727341215329,-0.14202413506967373,-0.5825566909691443,-0.7966955135883602,
1.5825467857868586E12,1.175344105326152,9.491322561340514,3.001795332136445,26.31402484657985,9.828768148480766,15.480616674150577,-0.3823088455772114,0.21889055472263869,0.20689655172413793,-0.07244581634180992,-0.1424021425305858,-0.5854179264409763,-0.7948327402031292,
1.5825467858063794E12,1.2639138240574506,9.476959904248952,2.7193297426690606,27.596467594671456,10.24098188893878,16.518784613081873,-0.3778110944527736,0.2353823088455772,0.21139430284857572,-0.06889372301893766,-0.143120446448762,-0.5887476664744552,-0.792556861024987,
1.5825467858259001E12,1.4721723518850987,9.522441651705565,2.6307600239377615,27.993414159556952,10.653195629396796,16.305044155066607,-0.37181409295352325,0.22788605697151423,0.2083958020989505,-0.06516361125667486,-0.14417393963501904,-0.5920140790224985,-0.7902448412594985,
1.582546785845421E12,1.6493117893476958,9.548773189706763,2.4608019150209457,26.222421793144736,10.973806316419697,15.633288429875767,-0.3733133433283358,0.22938530734632684,0.19790104947526235,-0.061210331318722305,-0.1452440786032053,-0.595256261491886,-0.7879260346791833,
1.5825467858649417E12,1.2950329144225015,9.831238779174146,2.32196289646918,21.779673701541682,8.302050591228857,13.953899116898668,-0.3778110944527736,0.2383808095952024,0.2083958020989505,-0.058672214518001975,-0.14578362553513105,-0.5981830445138774,-0.7858000706448778,
1.5825467858844624E12,1.4434470377019748,10.08258527827648,1.9652902453620587,18.298757671007333,9.828768148480766,12.350845681784163,-0.36881559220389803,0.22338830584707645,0.19940029985007496,-0.05611913299469838,-0.14622338877184796,-0.601164941928811,-0.783626234938398,
1.5825467859039834E12,1.4434470377019748,10.116098144823459,1.9676840215439857,14.115551564137105,9.905104026343361,10.808860948959737,-0.3658170914542728,0.22488755622188905,0.19940029985007496,-0.0539890489728749,-0.14643007630708416,-0.6034798789922964,-0.7819561694846773,
1.5825467859235042E12,1.3357271095152603,10.008378216636745,2.1567923399162177,9.153719503068404,7.2944170034425975,9.007334231402485,-0.3733133433283358,0.22938530734632684,0.19490254872563717,-0.05262587898140846,-0.14637118655197448,-0.604809420380859,-0.7810323665683585,
1.582546785943025E12,1.5248354278874925,9.979652902453621,2.116098144823459,5.489597365663823,4.1799131866487045,7.816494536745996,-0.3733133433283358,0.24887556221889054,0.19940029985007496,-0.05156449747678884,-0.14691015096840385,-0.6055798604721184,-0.7804047300811142,
1.5825467859625457E12,1.5559545182525434,9.807301017354877,2.2142429682824654,2.710971411465349,3.050142194282293,7.4958838497230955,-0.36881559220389803,0.24437781109445278,0.20089955022488756,-0.05079602248795873,-0.14763054667822825,-0.6056103297121185,-0.7802955301248813,
1.5825467859820664E12,1.639736684619988,9.699581089168163,2.264512268102932,1.7949408771142044,4.134111659931148,7.282143391707828,-0.3613193403298351,0.24887556221889054,0.191904047976012,-0.049719910246695365,-0.14819390616442035,-0.6054335633484247,-0.7803952185091991,
1.5825467860015872E12,1.5846798324356672,9.699581089168163,2.2573309395571513,1.4590630145187844,2.9890734919922166,7.450082323005538,-0.36881559220389803,0.24587706146926536,0.19640179910044978,-0.04893166118793797,-0.14881196137861769,-0.6052135781661391,-0.780498057324537,
1.582546786021108E12,1.5655296229802513,9.675643327348892,2.2573309395571513,0.3140248465798533,0.683729980541835,7.75542583445592,-0.35982008995502246,0.2383808095952024,0.19640179910044978,-0.0485207838036663,-0.14976101585759363,-0.6047573610200685,-0.7806957832346872,
1.5825467860406287E12,1.5391980849790545,9.634949132256134,2.2932375822860562,0.49723095345008234,-4.339170782816944,6.671456368807065,-0.36731634182908546,0.2338830584707646,0.19040479760119938,-0.048703126357795334,-0.1510438995302997,-0.6043556069783067,-0.7807483885423906,
1.5825467860601494E12,1.7378815080789947,9.474566128067025,2.2549371633752244,0.9094446939080976,-3.301002843885646,7.8317617123185155,-0.36431784107946025,0.2353823088455772,0.19490254872563717,-0.048345182919731354,-0.15278833407627032,-0.6038544993900169,-0.7808189366460624,
1.5825467860796702E12,1.8312387791741471,9.512866546977857,2.300418910831837,0.39036072444244874,-1.9422242179314473,8.350845681784165,-0.36881559220389803,0.23238380809595202,0.19790104947526235,-0.047739996485586765,-0.15451085849451054,-0.6031806481034169,-0.7810380228237213,
1.582546786099191E12,1.666068222621185,9.543985637342908,2.3099940155595453,0.6499027091752732,-4.995659332435264,9.75542583445592,-0.36731634182908546,0.24587706146926536,0.20389805097451275,-0.047610684205186944,-0.1563927389548229,-0.6025401751010492,-0.7811657131114498,
1.582546786118712E12,1.6493117893476958,9.467384799521245,2.17115499700778,1.0468492740607693,-7.988025744649005,10.518784613081873,-0.3613193403298351,0.24287856071964017,0.19940029985007496,-0.0476499253305627,-0.1586910078889351,-0.6022157875816623,-0.7809499304171709,
1.5825467861382327E12,1.883901855176541,9.443447037701974,2.2597247157390785,2.0544828618470286,-6.644514294267325,11.58748690315821,-0.36881559220389803,0.24437781109445278,0.19490254872563717,-0.04692145494579843,-0.16115525424379254,-0.6018297817077286,-0.7807869587441993,
1.5825467861577534E12,2.080191502094554,9.41472172351885,2.3770197486535007,3.550666067953899,-4.73611734770244,11.90809759018111,-0.36431784107946025,0.2563718140929535,0.20389805097451275,-0.04575615787656612,-0.16377631628449396,-0.6012109798515811,-0.7807874550391789,
1.5825467861772742E12,2.2621184919210053,9.400359066427288,2.4727707959305802,4.970513396198173,-4.110163149229158,12.595120490944469,-0.36431784107946025,0.25037481259370314,0.19790104947526235,-0.044107824181571297,-0.1665214495965178,-0.6005696400451987,-0.78079524468725,
1.582546786196795E12,2.2166367444643926,9.486535008976661,2.503889886295631,6.420895075587486,-2.0338272713665617,11.892830414608591,-0.35982008995502246,0.25337331334332835,0.19490254872563717,-0.042459015449546944,-0.168603234586594,-0.6002291125284607,-0.7807017316282124,
1.5825467862163157E12,2.32196289646918,9.687612208258528,2.4033512866546975,7.7338721748241275,-0.6139799431222871,10.976799880257447,-0.36731634182908546,0.24437781109445278,0.20089955022488756,-0.04085008661864862,-0.17055195788706284,-0.6003498182228278,-0.7802713603894199,
1.5825467862358364E12,2.535008976660682,9.642130460801916,2.357869539198085,8.680437060320312,1.5692261637479419,9.25160904056279,-0.3658170914542728,0.2518740629685157,0.19790104947526235,-0.03886005510272739,-0.17230878831753646,-0.6006765832128103,-0.7797353525175956,
1.5825467862553572E12,2.1879114302812686,9.57510472770796,2.2046678635547576,8.71097141146535,-0.1406975003741955,7.221074689417752,-0.3538230884557721,0.24587706146926536,0.19640179910044978,-0.03798083757315535,-0.17347679409406835,-0.6013892282288021,-0.7789699956085933,
1.582546786274878E12,2.2070616397366845,9.608617594254937,2.0706163973668463,8.970513396198175,-3.9422242179314475,5.450082323005538,-0.36731634182908546,0.2608695652173913,0.20539730134932532,-0.03771740248614924,-0.17499550084071702,-0.6023842752769679,-0.7778734840153934,
1.5825467862943987E12,2.302812687013764,9.673249551166966,2.0754039497307,10.161353090854663,-6.613979943122287,5.175273162700194,-0.36281859070464767,0.25037481259370314,0.20089955022488756,-0.03764860003163347,-0.17694123929757374,-0.6034480002202914,-0.7766111586769971,
1.5825467863139194E12,2.1687612208258527,9.546379413524836,2.082585278276481,10.817841640472983,-8.507109714114653,4.07603652147882,-0.37181409295352325,0.2608695652173913,0.19940029985007496,-0.03797778302723049,-0.17863690572698104,-0.6046248468639994,-0.7752904865038082,
1.5825467863334404E12,2.1615798922800717,9.448234590065828,2.1496110113704368,9.779673701541686,-9.102529561442898,4.228708277204012,-0.36731634182908546,0.2608695652173913,0.19940029985007496,-0.0384172378697869,-0.18036675179050138,-0.6053829586243678,-0.7742760645210511,
1.5825467863529612E12,2.044284859365649,9.50329144225015,2.1328545780969477,9.627001945816495,-9.911689866786409,5.022601406975004,-0.3658170914542728,0.2578710644677661,0.19940029985007496,-0.039094157233779146,-0.18200244855439468,-0.6061480792439303,-0.773260151319903,
1.582546786372482E12,2.049072411729503,9.517654099341712,2.0179533213644523,10.695704235892832,-8.90405627900015,6.457715910791798,-0.3733133433283358,0.24887556221889054,0.19640179910044978,-0.039381517485654084,-0.18364563369981052,-0.6072377438986857,-0.7720011008336429,
1.5825467863920027E12,1.9557151406343507,9.508078994614003,1.9748653500897666,11.70333782367909,-7.865888340068852,8.39664720850172,-0.3613193403298351,0.25037481259370314,0.2098950524737631,-0.03974577001725889,-0.18539164812327844,-0.6082541062991014,-0.7707640058683013,
1.5825467864115234E12,1.9748653500897666,9.500897666068223,1.9916217833632555,12.558299655740159,-6.919323454572669,10.014967819188744,-0.3583208395802099,0.25337331334332835,0.20389805097451275,-0.03967334068093824,-0.1870709823307098,-0.609293464964828,-0.7695400880787118,
1.5825467864310442E12,2.073010173548773,9.520047875523638,1.9916217833632555,15.611734770243975,-5.468941775183356,11.801227361173478,-0.3703148425787106,0.2638680659670165,0.19940029985007496,-0.03880111562521683,-0.1887208057705131,-0.6107211144941116,-0.7680485995082845,
1.582546786450565E12,2.1735487731897067,9.481747456612807,1.9485338120885696,18.115551564137103,-5.881155515641371,12.824128124532255,-0.3583208395802099,0.2518740629685157,0.20239880059970014,-0.037823205882480025,-0.19085850870868673,-0.6122293413998797,-0.7663665365080454,
1.5825467864700857E12,2.0754039497307,9.467384799521245,1.864751645721125,21.443795838946265,-8.797186049992517,13.801227361173476,-0.3583208395802099,0.2518740629685157,0.19940029985007496,-0.037082085539980804,-0.19321724237827398,-0.6142667306757359,-0.7641782513031131,
1.5825467864896064E12,2.4129263913824057,9.52722920406942,1.82884500299222,23.85600957940428,-7.407873072893279,15.90809759018111,-0.3703148425787106,0.2653673163418291,0.20239880059970014,-0.03528899444895653,-0.1961098648663664,-0.6164086179435541,-0.7617978888772233,
1.5825467865091272E12,2.4225014961101135,9.52722920406942,1.7522441651705565,25.917078281694355,-6.323903607244425,16.61038766651699,-0.36731634182908546,0.2563718140929535,0.20389805097451275,-0.03340284773956835,-0.1989424093270372,-0.6187448026085112,-0.7592503123338147,
1.582546786528648E12,2.6618791143028124,9.560742070616397,1.632555356074207,26.86364316719054,-2.0032929202215235,17.38901362071546,-0.3703148425787106,0.2593703148425787,0.20389805097451275,-0.030625099426028948,-0.20163826466054305,-0.621196250736713,-0.7566500720811974,
1.582546786548169E12,2.4751645721125075,9.632555356074207,1.4602034709754637,29.67280347253405,-5.682682233198623,18.182906750486453,-0.3613193403298351,0.2653673163418291,0.19940029985007496,-0.028438199658894,-0.20444776528314224,-0.6242717692684709,-0.7534435202225199,
1.5825467865676897E12,2.5374027528426093,9.80490724117295,1.3500897666068223,31.550666067953898,-11.453674599610837,18.701990719952104,-0.36431784107946025,0.2653673163418291,0.20239880059970014,-0.026845765191670437,-0.208056791605163,-0.6275554581239747,-0.7497771824595942,
1.5825467865872104E12,2.4943147815679234,9.912627169359665,1.1346499102333931,33.81020805268672,-16.369705133961983,18.030234994761262,-0.3568215892053973,0.2638680659670165,0.19940029985007496,-0.02597684808799908,-0.21208777488767933,-0.631339811757143,-0.7454891154115271,
1.5825467866067312E12,2.324356672651107,9.888689407540395,0.8569718731298623,34.756772938182905,-19.301002843885644,15.58748690315821,-0.36281859070464767,0.272863568215892,0.20239880059970014,-0.025974273651122197,-0.21595544039024098,-0.6356191951188613,-0.7407272262247451,
1.582546786626252E12,2.1615798922800717,9.967684021543985,0.6319569120287253,39.42852866337375,-33.3468043706032,14.854662475677294,-0.3658170914542728,0.2653673163418291,0.19940029985007496,-0.027657729144421727,-0.221227168140359,-0.6406352915459529,-0.7347652777050664,
1.5825467866457727E12,2.6786355475763015,10.015559545182525,1.2112507480550567,41.397994312228704,-25.178865439305493,19.327944918425384,-0.36431784107946025,0.27136431784107945,0.19940029985007496,-0.02730988300349514,-0.22622648471365125,-0.6442160734277683,-0.7301105386458598,
1.5825467866652935E12,3.9138240574506282,9.780969479353681,1.2758827049670856,44.32929202215237,-15.942224217931447,25.633288429875766,-0.35082458770614694,0.27436281859070466,0.20539730134932532,-0.023044385518189606,-0.23308288447870804,-0.6465781274237468,-0.7260014121173427,
1.5825467866848142E12,3.28426092160383,9.802513464991023,1.4602034709754637,45.30639125879359,-22.35443795838946,27.984433468043704,-0.36731634182908546,0.272863568215892,0.20089955022488756,-0.02039158117240416,-0.23911223276980853,-0.6487841808646345,-0.7221416829244324,
1.582546786704335E12,2.7169359664871333,10.075403949730699,1.6708557749850388,45.520131716808855,-20.339170782816943,28.992067055829963,-0.36881559220389803,0.26836581709145424,0.20389805097451275,-0.01901660738675957,-0.2432477271923369,-0.6507314494455739,-0.7190392844356437,
1.5825467867238557E12,3.5308198683423098,10.300418910831837,0.6798324356672651,52.573566831312675,-21.606346355336026,33.037868582547524,-0.3568215892053973,0.272863568215892,0.2128935532233883,-0.015729244276963983,-0.25015741831547184,-0.654733620827298,-0.7130902766793203,
1.5825467867433765E12,3.08557749850389,10.681029323758228,0.6798324356672651,58.40562790001496,-22.26283490495435,34.656189193234546,-0.3568215892053973,0.26686656671664166,0.2128935532233883,-0.013305787784561212,-0.2561029265087543,-0.6594006041288656,-0.7067001417288459,
1.5825467867628975E12,3.1406343506882104,11.339317773788151,0.9120287253141831,64.37509354886993,-19.89642269121389,35.38901362071546,-0.3583208395802099,0.27586206896551724,0.2083958020989505,-0.01072946811961213,-0.2610418204468572,-0.6641567045542306,-0.7004555077143197,
1.5825467867824182E12,3.5882704967085575,12.708557749850389,1.4721723518850987,73.10791797635085,-18.217033378236792,37.55695255201317,-0.35532233883058467,0.27136431784107945,0.21139430284857572,-0.007777642846276685,-0.26553189794647886,-0.6684772336536696,-0.69467295005019,
1.582546786801939E12,3.6313584679832434,13.117893476959903,2.2070616397366845,80.1155515641371,-31.575812004190986,41.87756323903607,-0.3583208395802099,0.2698650674662669,0.20539730134932532,-0.005828700202469213,-0.2710530671866361,-0.6719903576485168,-0.6891481845365953,
1.5825467868214597E12,2.951526032315978,12.744464392579294,2.982645122681029,83.74913935039665,-51.30100284388564,45.618021254303244,-0.3613193403298351,0.2848575712143928,0.21139430284857572,-0.006266688902326297,-0.2781677065907903,-0.6749874477551799,-0.6833559840911393,
1.5825467868409805E12,3.06163973668462,12.940754039497307,3.078396169958109,90.48196377787757,-54.461308187397094,50.33557850621165,-0.35532233883058467,0.2893553223388306,0.20689655172413793,-0.006009622605920988,-0.2860700431603673,-0.6783526495577163,-0.6767314812245592,
1.5825467868605012E12,2.503889886295631,12.964691801316576,1.7450628366247756,101.52013171680886,-62.461308187397094,54.656189193234546,-0.35082458770614694,0.2818590704647676,0.2143928035982009,-0.007042806197105491,-0.2949772181669671,-0.6842808245077623,-0.6668572507323623,
1.582546786880022E12,1.2878515858767206,13.182525433871932,1.2998204667863555,111.01631492291574,-90.6292471186948,49.90809759018111,-0.35982008995502246,0.29235382308845576,0.21889055472263869,-0.012534847119649618,-0.30567689475801296,-0.6925450547740892,-0.6532884973170271,
1.5825467868995427E12,2.0227408737283064,14.061041292639137,1.7737881508078994,116.92471186948062,-121.78955246220625,40.01496781918874,-0.3583208395802099,0.280359820089955,0.21589205397301348,-0.02181010997337303,-0.3188207587930976,-0.7002900248247398,-0.6383349622232111,
1.5825467869190635E12,2.1807301017354876,14.594853381208857,3.9305804907241173,113.35219278551115,-109.16359826373296,30.167639574913935,-0.36431784107946025,0.2818590704647676,0.23088455772113942,-0.02928392636211532,-0.3303542010379788,-0.7067319150300277,-0.6249308392065209,
1.5825467869385842E12,2.1376421304608018,11.767803710353082,3.4518252543387193,90.92471186948062,-90.21703337823678,22.213441101631492,-0.3658170914542728,0.2818590704647676,0.2368815592203898,-0.03585067070064828,-0.33925545414424,-0.7107821817803245,-0.6151497023548829,
1.5825467869581052E12,3.301017354877319,9.903052064631957,-2.1448234590065827,99.41326148780124,-87.85062116449633,17.541685376440654,-0.3658170914542728,0.2698650674662669,0.24587706146926536,-0.04047825301070828,-0.35023312193211825,-0.7190568982737385,-0.5988784921666775,
1.582546786977626E12,4.557749850388989,9.680430879712747,-3.2483542788749253,98.45142942673253,-76.03382727136656,16.76305942224218,-0.3793103448275862,0.2698650674662669,0.24287856071964017,-0.04124064146367162,-0.36132133632475977,-0.7271454146087648,-0.5822419148615136,
1.5825467869971467E12,4.682226211849192,9.081986834231,-3.262716935966487,83.99341415955695,-41.713216584343655,22.992067055829963,-0.3778110944527736,0.2773613193403298,0.24587706146926536,-0.03741599760132913,-0.3697432266120033,-0.732928782242648,-0.5698292636030122,
1.5825467870166675E12,3.815679233991622,7.959305804907241,-0.33273488928785155,60.98578057177069,-49.72848375991617,11.511151025295614,-0.3793103448275862,0.280359820089955,0.24437781109445278,-0.037968190193632755,-0.37460563744862496,-0.7326339871675913,-0.5669889538360049,
1.5825467870361882E12,7.298623578695392,4.648713345302214,-7.538001196888091,33.64226912138901,81.56922616374794,13.847028887891033,-0.3778110944527736,0.2773613193403298,0.24437781109445278,-0.019812767792122033,-0.3724550168539801,-0.7364999293777585,-0.5643160184500114,
1.582546787055709E12,-6.408138839018552,3.4039497307001794,6.932375822860562,-22.28139500074839,-38.79718604999251,-19.2216734021853,-0.3793103448275862,0.27586206896551724,0.239880059970015,-0.03093005288460679,-0.3711799224671647,-0.7346829497029503,-0.5670183069369076,
1.5825467870752297E12,-0.27767803710353084,2.56852184320766,3.9305804907241173,-75.85391408471784,34.912737614129625,-38.839994012872324,-0.37181409295352325,0.2818590704647676,0.25037481259370314,-0.036547817107707596,-0.36045503970208337,-0.7276443862447716,-0.5824689421630144,
1.5825467870947505E12,-1.4769599042489527,3.7773788150807897,3.466187911430281,-114.90734919922166,48.82113456069451,-52.778925310582245,-0.37631184407796103,0.26686656671664166,0.24437781109445278,-0.045791695108361244,-0.3450882893646572,-0.7176661559006146,-0.6031355418786993,
1.5825467871142712E12,-3.226810293237582,4.6104129263913824,2.1950927588270495,-147.5027690465499,22.469989522526568,-79.77129172279598,-0.3823088455772114,0.2608695652173913,0.24737631184407796,-0.06516726530619928,-0.3271854854389545,-0.7063308113536553,-0.6243393873391891,
1.582546787133792E12,-1.9868342309994016,5.622980251346499,2.276481149012567,-182.46460110761862,6.073042957641071,-91.8628947762311,-0.3868065967016492,0.2623688155922039,0.2578710644677661,-0.08963489025823522,-0.308258191835623,-0.6899406712944669,-0.6487868245489936,
1.5825467871533127E12,-1.6636744464392579,7.047277079593058,2.025134649910233,-212.6172728633438,-1.6826822331986229,-105.71022302050591,-0.39430284857571213,0.24887556221889054,0.2593703148425787,-0.11856549445950403,-0.2864763871769544,-0.669530347352784,-0.6749834198610167,
1.5825467871728337E12,-0.5457809694793536,8.430879712746858,1.5056852184320766,-236.83101332135905,-1.0567280347253405,-114.94686424187995,-0.39730134932533734,0.2353823088455772,0.2773613193403298,-0.1491635288899541,-0.2621191800625547,-0.6452430520904701,-0.7019296124408805,
1.5825467871923545E12,0.6008378216636744,9.87672052663076,1.4338719329742668,-255.77757820685528,12.729531507259392,-116.5041161502769,-0.4017991004497751,0.22638680659670163,0.2833583208395802,-0.17515725116764705,-0.23776033471841593,-0.6183759930672105,-0.7282864078067928,
1.5825467872118752E12,0.8904847396768402,11.77019748653501,1.0221424296828245,-267.50276904654993,40.607394102679244,-116.79419248615476,-0.39430284857571213,0.22188905547226387,0.29235382308845576,-0.1959888272772516,-0.21179805052950984,-0.5918526293700652,-0.7526223691082582,
1.582546787231396E12,0.1699581089168163,14.252543387193297,0.2848593656493118,-275.0142194282293,61.981439904205956,-121.80182607394102,-0.4047976011994003,0.2083958020989505,0.2863568215892054,-0.21454960344721546,-0.18220918564883315,-0.5655743755462342,-0.7751734683613202,
1.5825467872509167E12,2.824655894673848,16.624775583482943,-1.187312986235787,-277.7317766801377,78.02724143092351,-119.60335279149827,-0.416791604197901,0.1829085457271364,0.2818590704647676,-0.22891668067080642,-0.15243806151759964,-0.5384175538791802,-0.7965339467883189,
1.5825467872704375E12,4.057450628366247,18.467983243566724,-1.9102333931777378,-262.32719652746596,99.72189791947314,-111.2216734021853,-0.41379310344827586,0.17091454272863568,0.280359820089955,-0.23877310868490564,-0.12148872233788233,-0.5130411800858813,-0.8154855243655411,
1.5825467872899583E12,6.357869539198084,18.429682824655895,-2.793536804308797,-230.26612782517586,126.14937883550365,-103.45068103577309,-0.41079460269865065,0.15142428785607195,0.2653673163418291,-0.243481652654044,-0.08960173368856343,-0.4920192170928473,-0.8310266567037432,
1.582546787309479E12,6.161579892280072,17.37642130460802,-3.296229802513465,-188.64780721448884,145.24861547672504,-97.28274210447537,-0.4077961019490255,0.15292353823088456,0.2593703148425787,-0.2445940684383848,-0.05732112328778007,-0.4770355752475373,-0.8422143969667325,
1.5825467873289998E12,7.0855774985038895,16.146020347097547,-4.0,-147.21269271067203,125.72189791947312,-88.71785660829217,-0.4122938530734633,0.1424287856071964,0.2383808095952024,-0.2449880705202487,-0.03059627968960363,-0.46656056376876054,-0.8493326517376435,
1.5825467873485205E12,10.690604428485937,13.405146618791143,-5.505685218432077,-105.77757820685525,94.07304295764106,-62.54991767699446,-0.3958020989505247,0.1409295352323838,0.21589205397301348,-0.24299306709195145,-0.013427225392623518,-0.45997780514297065,-0.8539288598819912,
1.5825467873680413E12,11.880311190903651,12.050269299820467,-6.0754039497307,-59.64017362670259,78.04250860649603,-19.801826073941026,-0.3988005997001499,0.1424287856071964,0.20539730134932532,-0.23562348831646962,-0.004212358430454259,-0.4590745853194554,-0.8565712771881872,
1.5825467873875623E12,7.219628964691801,10.628366247755835,-5.374027528426092,-14.220326298458314,22.43945517138153,5.114204460410118,-0.4047976011994003,0.12893553223388304,0.20389805097451275,-0.22939964373648866,-0.005836113339886438,-0.463082289641063,-0.8560937660416916,
1.582546787407083E12,7.018551765409934,9.393177737881508,-5.795332136445242,28.451429426732524,-11.621613530908547,28.824128124532255,-0.4077961019490255,0.13193403298350825,0.2083958020989505,-0.22235306422192347,-0.01596559714742153,-0.4719435073020677,-0.8529792145499623,
1.5825467874266038E12,8.201077199281867,9.874326750448834,-4.153201675643327,64.4208950755875,-23.606346355336026,56.39664720850172,-0.3988005997001499,0.1394302848575712,0.21139430284857572,-0.2118261487820413,-0.0321488773191344,-0.48460905986316766,-0.8480861934248338,
1.5825467874461245E12,2.128067025733094,12.385397965290245,3.1143028126870136,62.8331088160455,15.58449333932046,56.96153270468493,-0.39730134932533734,0.13793103448275862,0.20689655172413793,-0.1988297753062208,-0.04077895591243403,-0.4971643861680927,-0.8435824620820855,
1.5825467874656453E12,-7.332136445242369,14.104129263913824,7.822860562537403,61.04684927406077,-67.72848375991617,51.7401586588834,-0.40629685157421286,0.14392803598200898,0.22488755622188905,-0.19880640056074217,-0.051826995632909476,-0.504820234743182,-0.838419052868902,
1.582546787485166E12,2.6762417713943747,12.916816277678036,-1.1250748055056852,73.65753629696154,17.73716509504565,56.472983086364316,-0.4002998500749625,0.1454272863568216,0.21589205397301348,-0.18597921532560777,-0.059831721540530965,-0.5197193814991755,-0.8316992611866877,
1.5825467875046868E12,2.56852184320766,9.888689407540395,1.6086175942549372,68.45142942673253,23.187546774434963,73.81649453674599,-0.3988005997001499,0.1454272863568216,0.20239880059970014,-0.16960885688525443,-0.06932543850360581,-0.5321257332826905,-0.8266008850834353,
1.5825467875242075E12,0.6918013165769,9.388390185517654,1.390783961699581,53.67280347253405,15.981439904205956,59.08367010926508,-0.3958020989505247,0.15592203898050974,0.20389805097451275,-0.1573911667015059,-0.07604636182920102,-0.5426015888934272,-0.8216011728492172,
1.5825467875437283E12,1.0412926391382404,10.111310592459605,2.4560143626570916,38.74150576261039,1.8440353240532854,46.99206705582996,-0.4017991004497751,0.16941529235382308,0.19490254872563717,-0.14806307250544987,-0.08341591927561065,-0.5497061426197636,-0.817888909166612,
1.582546787563249E12,1.4745661280670257,10.073010173548774,2.79114302812687,31.535398892381377,-9.514743301900912,44.610387666516985,-0.40629685157421286,0.17241379310344826,0.21139430284857572,-0.14011277986459317,-0.09256681366931785,-0.5547080740476986,-0.8149225401914091,
1.5825467875827698E12,0.7660083782166367,10.094554159186115,2.6355475763016156,26.34455919772489,2.0577757820685525,41.801227361173474,-0.3913043478260869,0.18140929535232383,0.20689655172413793,-0.13239456491047885,-0.09845939138270308,-0.5595138907054508,-0.8122324996811945,
1.5825467876022908E12,0.09814482345900657,10.061041292639137,2.6906044284859365,22.558299655740157,3.1417452477174073,39.05313575812004,-0.39280359820089955,0.17691154422788605,0.20689655172413793,-0.12598136561262907,-0.10262058643599913,-0.5637424477307831,-0.8098099551033033,
1.5825467876218115E12,0.8569718731298623,10.02752842609216,2.6810293237582283,21.97814698398443,-3.0109265080077834,37.37374644514294,-0.3958020989505247,0.17241379310344826,0.2083958020989505,-0.11982428435272821,-0.10847491206509748,-0.5673244589700323,-0.8074764966153418,
1.5825467876413323E12,0.9551166965888689,9.625374027528427,3.104727707959306,20.726238587037866,-6.858254752282592,33.70962430773836,-0.3988005997001499,0.17541229385307347,0.2083958020989505,-0.11460033041400651,-0.11441348191344587,-0.569714929546006,-0.8057302392723208,
1.582546787660853E12,1.5128665469778575,9.409934171154998,2.9682824655894673,20.085017212992064,-12.308636431671905,30.121838048196377,-0.38830584707646176,0.1874062968515742,0.19490254872563717,-0.10965335220045515,-0.12132761954036572,-0.5718792240918461,-0.8038718207152055,
1.5825467876803738E12,1.6971873129862358,9.417115499700778,2.987432675044883,20.100284388564585,-11.652147882053585,27.06840293369256,-0.3958020989505247,0.19940029985007496,0.2098950524737631,-0.10510300966190153,-0.12803908677613815,-0.573799462245842,-0.8020682805995543,
1.5825467876998945E12,1.9030520646319569,9.539198084979054,2.779174147217235,19.214788205358477,-5.57581200419099,25.801227361173478,-0.38830584707646176,0.20239880059970014,0.20689655172413793,-0.10011196097991715,-0.13380221222494615,-0.5759735965160033,-0.8002055857021283,
1.5825467877194153E12,1.632555356074207,9.74985038898863,2.614003590664273,17.932345457266873,-4.7208501721299205,22.335578506211643,-0.39430284857571213,0.2083958020989505,0.20539730134932532,-0.09605053798876605,-0.13826421093599825,-0.5784548975826775,-0.7981523874479913,
1.582546787738936E12,1.436265709156194,9.967684021543985,2.6427289048473965,14.527765304595121,-8.40023948510702,19.205807513845233,-0.4032983508245877,0.20089955022488756,0.19490254872563717,-0.0931730697820585,-0.14212455495042828,-0.5805624506245595,-0.7962830092827151,
1.5825467877584568E12,1.3524835427887492,9.792938360263316,2.54458408138839,13.596467594671457,-12.995659332435265,15.877563239036071,-0.39430284857571213,0.19940029985007496,0.2083958020989505,-0.0916493504369494,-0.1462450041940357,-0.5824021070075596,-0.7943680387993507,
1.5825467877779775E12,1.7833632555356074,9.57510472770796,2.511071214841412,14.298757671007335,-14.308636431671905,14.106570872623859,-0.3913043478260869,0.20089955022488756,0.2128935532233883,-0.09002598318259537,-0.15109911061647047,-0.5839958288261905,-0.7924728721139479,
1.5825467877974983E12,1.9533213644524237,9.46259724715739,2.532615200478755,15.932345457266875,-15.270468492740607,13.175273162700194,-0.3988005997001499,0.191904047976012,0.21589205397301348,-0.08849504296983803,-0.15616968892899188,-0.5855285039086314,-0.7905289537645718,
1.5825467878170193E12,1.9916217833632555,9.493716337522441,2.587672052663076,16.63463553360275,-10.720850172129921,13.205807513845233,-0.3958020989505247,0.19790104947526235,0.21139430284857572,-0.08645904480130069,-0.16043374892042156,-0.5870869946119981,-0.7887424842981628,
1.58254678783654E12,2.336325553560742,9.283064033512867,2.561340514661879,19.84074240383176,-0.23230055380931003,15.618021254303248,-0.3913043478260869,0.22188905547226387,0.2143928035982009,-0.08242999119932164,-0.16412056270233494,-0.5888678500104172,-0.7870860135164756,
1.5825467878560608E12,2.2453620586475163,9.149012567324954,2.350688210652304,22.955246220625654,5.1722795988624455,16.656189193234546,-0.3958020989505247,0.2143928035982009,0.21889055472263869,-0.07798363604094682,-0.16702939124047195,-0.5912897913479923,-0.7851089845488447,
1.5825467878755815E12,1.869539198084979,9.273488928785158,2.2501496110113703,24.97051339619817,2.2409818889387814,17.969166292471186,-0.38980509745127434,0.2098950524737631,0.22338830584707645,-0.07447385968266851,-0.16974579113140192,-0.5940869417522062,-0.7827520145337548,
1.5825467878951023E12,1.9102333931777378,9.529622980251347,2.2788749251944944,26.39036072444245,4.775333033976949,20.701990719952104,-0.39430284857571213,0.20689655172413793,0.22338830584707645,-0.07046806496711412,-0.17225389781920283,-0.5969280930356988,-0.7804099552482954,
1.582546787914623E12,2.0203470975463795,9.436265709156194,2.0323159784560145,29.65753629696153,7.813500972908247,23.618021254303248,-0.39430284857571213,0.20539730134932532,0.2098950524737631,-0.06543625984432594,-0.17467811593381877,-0.6004359658923634,-0.7776132088476261,
1.5825467879341438E12,1.9150209455415919,9.555954518252543,1.9916217833632555,32.23768896871726,6.2562490645113,24.793593773387215,-0.39430284857571213,0.22038980509745126,0.2098950524737631,-0.060622592143015325,-0.17706540337060908,-0.604234438704703,-0.7745150013616765,
1.5825467879536646E12,1.8264512268102933,9.728306403351286,1.9222022740873728,33.03158209848825,1.1722795988624457,25.938631941326147,-0.3958020989505247,0.21589205397301348,0.20239880059970014,-0.05641280202314833,-0.1798421629431161,-0.6081122349731878,-0.7711510240359882,
1.5825467879731853E12,2.061041292639138,9.879114302812686,1.87672052663076,35.09265080077832,-2.8582547522825923,27.709624307738363,-0.3913043478260869,0.21139430284857572,0.2098950524737631,-0.05237234920985685,-0.18371638475377974,-0.6118784017618977,-0.7675351773492521,
1.582546787992706E12,2.084979054458408,9.747456612806703,1.622980251346499,37.53539889238138,-7.988025744649005,29.511151025295614,-0.383808095952024,0.21739130434782608,0.20539730134932532,-0.04857700841933404,-0.18842304971164095,-0.6160138541724932,-0.7633242823714853,
1.5825467880122268E12,2.087372830640335,9.639736684619988,1.613405146618791,40.46669660230504,-15.010926508007783,29.57221972758569,-0.38980509745127434,0.21589205397301348,0.2083958020989505,-0.045604728519043645,-0.19390477446951224,-0.6201809198979304,-0.7587468443223924,
1.5825467880317478E12,2.573309395571514,9.926989826451226,1.8456014362657092,42.939979045053136,-18.278102080526867,32.44244873521928,-0.38080959520239877,0.2353823088455772,0.20689655172413793,-0.04204314651625548,-0.2004998542083411,-0.6237446089681634,-0.7543042125539268,
1.5825467880512686E12,2.786355475763016,9.938958707360861,1.5918611609814481,46.90944469390809,-16.904056279000148,35.541685376440654,-0.39430284857571213,0.2383808095952024,0.20239880059970014,-0.03751960136619316,-0.2072684127634138,-0.6279455391643137,-0.7492105741562225,
1.5825467880707893E12,2.724117295032914,10.300418910831837,1.4769599042489527,48.81784164047298,-21.453674599610835,37.618021254303244,-0.3868065967016492,0.2368815592203898,0.2128935532233883,-0.03384004181319396,-0.21453365643784747,-0.6322067354029055,-0.7437370540296412,
1.58254678809031E12,2.5062836624775584,10.47277079593058,1.402752842609216,51.36745996108367,-31.759018111061213,37.49588384972309,-0.38080959520239877,0.2353823088455772,0.2083958020989505,-0.03179200627593601,-0.22234614830487798,-0.636725664927389,-0.7376529578966728,
1.5825467881098308E12,2.9587073608617596,10.949132256134051,1.2998204667863555,56.207154617572215,-38.35443795838946,37.63328842987577,-0.3913043478260869,0.2368815592203898,0.21889055472263869,-0.030044642020129634,-0.23137012504715457,-0.6415086500888371,-0.7307748193409133,
1.5825467881293516E12,2.3650508677438657,11.03770197486535,1.0628366247755834,61.35219278551115,-36.88878910342763,36.64092201766203,-0.3868065967016492,0.23088455772113942,0.21889055472263869,-0.02917040974126208,-0.2390059592004731,-0.6472721935053859,-0.7232315992660409,
1.5825467881488723E12,2.1448234590065827,11.250748055056851,0.708557749850389,67.52013171680886,-34.32390360724442,37.38901362071546,-0.38830584707646176,0.22788605697151423,0.2143928035982009,-0.028016335762676182,-0.2459723103613849,-0.6540663099837798,-0.7147796650787693,
1.582546788168393E12,2.410532615200479,11.607420706163973,0.7372830640335128,75.24532255650352,-29.438407424038317,40.671456368807064,-0.3793103448275862,0.24287856071964017,0.22038980509745126,-0.025808780123383692,-0.2527261600094796,-0.661009062770527,-0.7060668621671997,
1.5825467881879138E12,2.74326750448833,11.772591262716936,1.180131657690006,82.80257446490047,-26.85825475228259,45.77069301002844,-0.38830584707646176,0.24887556221889054,0.21739130434782608,-0.022351250250332876,-0.2593090710323358,-0.6672746292906803,-0.6978565729414457,
1.5825467882074346E12,2.970676241771394,12.090963494913225,1.7833632555356074,88.71097141146535,-29.285735668313126,51.114204460410114,-0.38980509745127434,0.2353823088455772,0.2098950524737631,-0.01843845811876879,-0.2660162086578234,-0.672386056617385,-0.6905015502227654,
1.5825467882269556E12,2.79114302812687,13.797725912627168,2.2214242968282467,101.230055380931,-33.85062116449633,48.82412812453225,-0.3868065967016492,0.2518740629685157,0.22188905547226387,-0.01612635135309737,-0.2719497609418495,-0.6785685131445415,-0.6821495739825054,
1.5825467882464763E12,2.386594853381209,15.791741472172351,3.791741472172352,112.52776530459512,-63.13306391258793,47.20580751384523,-0.38830584707646176,0.2623688155922039,0.22488755622188905,-0.017323201651978704,-0.2802414606270798,-0.685158059477729,-0.6721034622458348,
1.582546788265997E12,1.2016756433273488,14.061041292639137,3.990424895272292,116.64990270917528,-99.46894177518335,57.81649453674599,-0.38830584707646176,0.2653673163418291,0.21889055472263869,-0.021405009090550813,-0.2935848652237156,-0.6917210953405195,-0.6594480106561231,
1.5825467882855178E12,1.7690005984440453,14.142429682824655,3.006582884500299,111.52013171680886,-82.36970513396197,64.07603652147881,-0.3823088455772114,0.2563718140929535,0.22938530734632684,-0.02320842330574281,-0.30580731311945897,-0.6970396624857063,-0.6481349899921555,
1.5825467883050386E12,2.6834230999401556,14.374625972471573,2.1759425493716336,118.32929202215237,-72.35443795838945,60.99206705582996,-0.38080959520239877,0.26686656671664166,0.23088455772113942,-0.023419580753830518,-0.3167595500793525,-0.702756375335292,-0.6365912248817472,
1.5825467883245593E12,2.190305206463196,13.357271095152603,3.2675044883303412,126.49723095345009,-96.88878910342763,47.69435713216584,-0.38980509745127434,0.2608695652173913,0.2353823088455772,-0.026867234294901895,-0.3290048799106048,-0.7095426153926209,-0.6225618183426852,
1.58254678834408E12,3.9018551765409932,11.159784560143626,1.3429084380610412,130.32929202215237,-84.85825475228259,32.76305942224218,-0.3868065967016492,0.26836581709145424,0.24587706146926536,-0.028212356354994823,-0.3395903161632112,-0.7157750185377109,-0.6095478676481516,
1.5825467883636008E12,5.340514661879114,9.761819269898265,-1.9317773788150807,123.53539889238138,-64.12543032480167,28.0607693459063,-0.3868065967016492,0.2698650674662669,0.24287856071964017,-0.024016568145782347,-0.351317887734884,-0.7242436997548826,-0.592849061378491,
1.5825467883831216E12,4.220227408737283,9.61340514661879,-3.28426092160383,104.57356683131268,-28.965124981290224,36.167639574913935,-0.3868065967016492,0.27136431784107945,0.2563718140929535,-0.017960107894763384,-0.359409575494996,-0.7321486955498937,-0.5783255823249602,
1.5825467884026423E12,2.362657091561939,7.621783363255536,2.106523040095751,83.58120041909893,-3.0872623858703787,22.350845681784165,-0.3823088455772114,0.280359820089955,0.2563718140929535,-0.012834472521795547,-0.36003473230891286,-0.7350919823500243,-0.5743257310368817,
1.582546788422163E12,2.827049670855775,4.964691801316577,0.7707959305804907,47.12318515192336,-12.40023948510702,15.160005987127676,-0.38530734632683655,0.2818590704647676,0.25487256371814093,-0.009113641661327061,-0.3621912233958592,-0.7334961637432773,-0.5750807221639193,
1.582546788441684E12,-0.5745062836624776,4.981448234590066,2.2477558348294435,6.924711869480617,-20.827720401137555,-7.878161951803621,-0.3778110944527736,0.27586206896551724,0.24887556221889054,-0.015833834503520904,-0.3597007521613286,-0.7326425725207327,-0.5775807471771305,
1.5825467884612048E12,-0.5218432076600837,4.782764811490126,1.4482345900658289,-28.693608741206408,-21.316270019458166,-25.67968866936087,-0.383808095952024,0.2863568215892054,0.2608695652173913,-0.02747657984547644,-0.35443022391110346,-0.7294150693609686,-0.5844466703878581,
1.5825467884807256E12,-0.4931178934769599,4.263315380011969,1.6181926989826452,-68.89208202364915,-21.362071546175724,-43.42014668462805,-0.38080959520239877,0.272863568215892,0.2638680659670165,-0.04292800334460894,-0.3468964009503161,-0.7228059961660874,-0.5961304936361776,
1.5825467885002463E12,-1.0795930580490725,3.8467983243566723,1.6828246558946738,-109.67070797784761,-24.110163149229155,-60.21403981439904,-0.38530734632683655,0.2698650674662669,0.2698650674662669,-0.06318691704369508,-0.3368936077498649,-0.713021660468385,-0.6116455037639862,
1.582546788519767E12,-1.1202872531418313,4.205864751645721,0.9670855774985039,-144.63254003891632,-22.76665169884748,-73.89342912737614,-0.3913043478260869,0.26686656671664166,0.280359820089955,-0.0881394806005077,-0.3233377995834301,-0.7002718167364953,-0.6303201424709405,
1.5825467885392878E12,-0.7947336923997605,5.172950329144225,1.0125673249551166,-178.47986828319114,-9.010926508007783,-83.89342912737614,-0.3913043478260869,0.2578710644677661,0.28785607196401797,-0.11434758040146663,-0.30569309745311446,-0.6832396738371055,-0.653192092053185,
1.5825467885588086E12,-0.46918013165769,6.259724715739078,0.8234590065828845,-204.98368507708426,12.08831013321359,-93.49648256249064,-0.3988005997001499,0.2383808095952024,0.29535232383808097,-0.14030274482435362,-0.2831093703568187,-0.6632439859965665,-0.6784332238697516,
1.5825467885783293E12,-0.4955116696588869,7.887492519449431,0.7324955116696589,-225.0142194282293,16.836401736267025,-100.30564286783415,-0.40629685157421286,0.22488755622188905,0.31634182908545727,-0.16610979779703838,-0.2591193685259495,-0.6413965658808951,-0.7027625012810051,
1.58254678859785E12,0.22980251346499103,9.711549970077797,-0.07420706163973669,-240.7852117946415,25.40128723245023,-103.23694057775782,-0.40929535232383807,0.20539730134932532,0.3238380809595202,-0.18758589741109205,-0.23666192671587472,-0.6189148964239796,-0.7250841430620999,
1.5825467886173708E12,1.2064631956912029,11.269898264512268,-0.9790544584081388,-250.81574614578656,41.553958988175424,-104.58045202813949,-0.39730134932533734,0.17841079460269865,0.33433283358320837,-0.20539861341999202,-0.21369017264610793,-0.595456649481733,-0.7467123263396753,
1.5825467886368916E12,1.402752842609216,13.022142429682825,-0.931178934769599,-255.7928453824278,48.77533303397695,-107.93923065409369,-0.4032983508245877,0.15442278860569714,0.3298350824587706,-0.22210806260477772,-0.18921817985534958,-0.5709762214000789,-0.7673660427291978,
1.5825467886564126E12,3.734290843806104,15.016157989228008,-1.8360263315380012,-253.91498278700794,65.40128723245023,-108.58045202813949,-0.40629685157421286,0.1454272863568216,0.32533733133433285,-0.2354210185272286,-0.16374422658578822,-0.5464381552774948,-0.7868736332806894,
1.5825467886759333E12,3.8779174147217232,16.035906642728904,-2.2046678635547576,-243.85391408471784,72.2562490645113,-110.38197874569674,-0.39280359820089955,0.09745127436281859,0.3073463268365817,-0.2476168047275175,-0.13743414337797946,-0.52290619510342,-0.8039694554975079,
1.582546788695454E12,5.194494314781568,16.17235188509874,-2.5374027528426093,-228.7852117946415,69.58449333932046,-106.12243676096392,-0.3823088455772114,0.07796101949025487,0.28785607196401797,-0.2582263759068959,-0.11293408253552716,-0.5004330664605968,-0.8186157693208048,
1.5825467887149749E12,5.438659485338121,15.971274685816876,-2.7265110712148415,-208.3119293518934,79.23334830115252,-98.61098637928454,-0.37181409295352325,0.0704647676161919,0.2638680659670165,-0.26603292824531055,-0.08863491616852154,-0.48061289423232745,-0.8308920378861806,
1.5825467887344956E12,2.781567923399162,15.516457211250748,-1.8456014362657092,-179.76231103128274,74.5768597515342,-90.0155665319563,-0.3448275862068965,0.06446776611694152,0.22638680659670163,-0.2726276408650916,-0.0659435090768271,-0.46443196297032,-0.8400170086483394,
1.5825467887540164E12,3.992818671454219,15.727109515260322,-2.9180131657690005,-139.60963927555753,36.408920820236496,-72.59571920371202,-0.33883058470764615,0.07496251874062969,0.2128935532233883,-0.27866582784869764,-0.052321824792803485,-0.4518600581051104,-0.8458311125331093,
1.582546788773537E12,5.9844404548174746,13.517654099341712,-4.639138240574506,-102.06765454273311,22.790600209549467,-54.44304744798683,-0.32233883058470764,0.08845577211394302,0.21139430284857572,-0.282272500435112,-0.04468505396383289,-0.44379047254202975,-0.8493382706150011,
1.5825467887930579E12,8.957510472770796,10.93476959904249,-6.685816876122082,-68.51040263433617,59.553958988175424,-29.20640622661278,-0.32233883058470764,0.08545727136431784,0.20089955022488756,-0.27866002371122783,-0.0362271917245789,-0.441823270655922,-0.8519556204826121,
1.5825467888125786E12,7.128665469778576,11.13345302214243,-4.725314183123878,-28.58673851219877,102.88220326298458,2.518784613081874,-0.2983508245877061,0.08995502248875561,0.19040479760119938,-0.2670302508056311,-0.025561221845657185,-0.4474138456606271,-0.8531484746535081,
1.5825467888320994E12,4.201077199281867,11.01376421304608,-3.241172950329144,6.665169884747792,56.39365364466397,15.556952552013172,-0.29385307346326833,0.10494752623688156,0.17241379310344826,-0.25709477299231615,-0.02317998906682882,-0.4561575104133085,-0.8516368307561758,
1.58254678885162E12,5.807301017354877,9.72591262716936,-4.038300418910832,35.67280347253405,41.66082921718306,33.25160904056279,-0.2983508245877061,0.12443778110944527,0.17091454272863568,-0.24513872101359963,-0.026307159900763242,-0.4680619306734108,-0.8486064870433478,
1.582546788871141E12,4.852184320766009,9.764213046080192,-2.5134649910233393,49.68807064810657,21.111210896572366,41.86229606346355,-0.29235382308845576,0.10794602698650674,0.16941529235382308,-0.2335456685371046,-0.033614230026229465,-0.48061006423012864,-0.8445948557788002,
1.5825467888906619E12,3.722321962896469,9.491322561340514,-0.16517055655296228,51.947612632839395,2.6073941026792395,49.037868582547524,-0.2908545727136432,0.11544227886056971,0.1649175412293853,-0.22229488424142638,-0.04424594286559904,-0.4919130233821928,-0.840624088643084,
1.5825467889101826E12,3.1526032315978454,8.950329144225014,3.7773788150807897,38.78730728932794,31.82876814848077,41.40428079628798,-0.27586206896551724,0.1184407796101949,0.15892053973013492,-0.2090520233149662,-0.050790845433418955,-0.49963194874255884,-0.8390980022403763,
1.5825467889297034E12,-5.51047277079593,10.465589467384799,11.616995810891682,15.52013171680886,-38.033827271366555,39.40428079628798,-0.2788605697151424,0.1184407796101949,0.15592203898050974,-0.20945433105497233,-0.053390522094646564,-0.4949064171108711,-0.8416329209668877,
1.582546788949224E12,-1.4530221424296828,15.923399162178336,0.11250748055056851,47.077383625205805,-20.186499027091752,40.534051788654395,-0.272863568215892,0.12293853073463268,0.14992503748125938,-0.20344861182181653,-0.062128849571229675,-0.5054393107480051,-0.836229496938079,
1.5825467889687449E12,5.709156193895871,13.826451226810294,-0.91442250149611,67.91707828169436,48.45472234695405,64.24397545277652,-0.27136431784107945,0.13343328335832083,0.1619190404797601,-0.1859389706919962,-0.06782545698019145,-0.5198468602785283,-0.8310148304464762,
1.5825467889882656E12,-1.644524236983842,8.25374027528426,3.279473369239976,54.573566831312675,6.42418799580901,63.343212093997906,-0.26836581709145424,0.13343328335832083,0.15742128935532235,-0.17595367003247553,-0.07266820520373335,-0.5293446870767997,-0.8267731491879354,
1.5825467890077864E12,1.6038300418910831,8.184320766008378,1.3357271095152603,39.947612632839395,36.88220326298458,58.59512049094447,-0.2518740629685157,0.13193403298350825,0.1619190404797601,-0.16125014831579895,-0.07781145182534352,-0.5381789846820725,-0.8235940432516123,
1.5825467890273071E12,0.8928785158587672,10.590065828845002,3.1621783363255536,30.451429426732524,4.897470438557102,49.26687621613531,-0.2638680659670165,0.13793103448275862,0.15742128935532235,-0.1515745198145298,-0.08502358241931517,-0.5438216645399034,-0.8210080100416984,
1.582546789046828E12,0.9192100538599641,10.391382405745063,3.0592459605026927,28.023948510701988,-16.247567729381828,41.40428079628798,-0.2593703148425787,0.15592203898050974,0.15142428785607195,-0.1449710391914631,-0.09405471655106705,-0.5486210165244259,-0.8180171687183292,
1.5825467890663486E12,1.3237582286056253,9.541591861160981,2.6738479952124474,22.222421793144736,-7.0567280347253405,38.50351743750935,-0.2578710644677661,0.14842578710644677,0.16041979010494753,-0.13794815795381668,-0.10205607184284969,-0.5524727527638845,-0.8156768486175465,
1.5825467890858696E12,1.2830640335128665,9.673249551166966,2.6882106523040097,19.35219278551115,7.370752881305193,36.56458613979943,-0.26686656671664166,0.15292353823088456,0.1424287856071964,-0.1298884643680642,-0.10697416788163752,-0.5563840751255626,-0.8137089622075018,
1.5825467891053904E12,1.2064631956912029,10.094554159186115,2.6403351286654697,17.82547522825924,15.538691812602902,34.854662475677294,-0.2593703148425787,0.1619190404797601,0.15442278860569714,-0.12180663237109202,-0.11044945893759772,-0.5602523972375666,-0.8118382306348756,
1.5825467891249111E12,0.9575104727707959,9.86953919808498,2.9563135846798323,17.871276754976797,14.91273761412962,31.022601406975003,-0.2593703148425787,0.1619190404797601,0.14392803598200898,-0.1145970399227595,-0.11289675135199852,-0.5636853140079785,-0.8101732584742802,
1.582546789144432E12,0.9886295631358468,9.467384799521245,3.2124476361460204,13.001047747343213,4.912737614129621,24.625654842089507,-0.24887556221889054,0.15742128935532235,0.14842578710644677,-0.10959777910516061,-0.11617118343689482,-0.5653455976921018,-0.8092446713598107,
1.5825467891639526E12,1.9916217833632555,9.783363255535606,2.491921005385996,9.932345457266877,7.569226163747941,19.511151025295614,-0.24437781109445278,0.15892053973013492,0.15142428785607195,-0.10421805831116601,-0.12007995587896751,-0.5675188391210667,-0.8078624683450966,
1.5825467891834734E12,1.2734889287851585,10.013165769000599,2.563734290843806,7.138452327495884,4.973806316419697,13.923364765753629,-0.2608695652173913,0.16041979010494753,0.14392803598200898,-0.10074854312842262,-0.12207583946701327,-0.569676538069218,-0.8064836405342611,
1.5825467892029941E12,0.9862357869539198,9.967684021543985,2.4823459006582884,1.2911240832210746,-8.461308187397096,7.4958838497230955,-0.2518740629685157,0.15892053973013492,0.1409295352323838,-0.1000242355041426,-0.12466008767777166,-0.571032703643862,-0.805218396598813,
1.582546789222515E12,0.9216038300418911,10.022740873728306,2.5254338719329743,-3.258494237389612,-21.54527765304595,2.6409220176620263,-0.2608695652173913,0.17541229385307347,0.14992503748125938,-0.10145499178070139,-0.1282904100975495,-0.5716076918352746,-0.8040603845200497,
1.5825467892420356E12,1.374027528426092,9.814482345900657,2.54458408138839,-4.1592575961682385,-26.73611734770244,-1.3590779823379735,-0.25487256371814093,0.1649175412293853,0.15592203898050974,-0.10358597579818314,-0.1331535688672342,-0.571581656476992,-0.8030158670255991,
1.5825467892615564E12,1.5272292040694195,9.500897666068223,2.865350089766607,-3.166891183954498,-31.285735668313123,-2.8247268372998056,-0.25337331334332835,0.1664167916041979,0.15292353823088456,-0.10600015881291719,-0.13863480925534782,-0.5709357785836192,-0.8022323184262066,
1.5825467892810771E12,1.666068222621185,9.079593058049072,3.2004787552363854,-0.6936087412064061,-26.56817841640473,-1.267474928902859,-0.2593703148425787,0.17241379310344826,0.14842578710644677,-0.1071627867252003,-0.14363351130924698,-0.5698389810785166,-0.8019782336283595,
1.5825467893005981E12,1.7618192698982644,8.971873129862358,3.478156792339916,4.176620266427181,-18.26283490495435,2.3050441550666068,-0.2638680659670165,0.17091454272863568,0.15742128935532235,-0.10690783061560918,-0.1480844361135894,-0.5685597883080031,-0.8021106424011234,
1.582546789320119E12,1.5655296229802513,9.024536205864752,3.430281268701376,10.588834006885197,-14.262834904954348,6.763059422242179,-0.2563718140929535,0.1619190404797601,0.15592203898050974,-0.10604230557688797,-0.15193551724479126,-0.5683711606198133,-0.8016388537260293,
1.5825467893396396E12,1.5559545182525434,8.98623578695392,3.478156792339916,17.35219278551115,-12.40023948510702,11.801227361173478,-0.2593703148425787,0.1664167916041979,0.1634182908545727,-0.10433454149044528,-0.15602101014294217,-0.5687275753757057,-0.8008250076347676,
1.5825467893591604E12,1.5104727707959305,9.019748653500898,3.3105924596050267,23.275856907648553,-10.980392156862745,16.824128124532255,-0.2698650674662669,0.1649175412293853,0.16041979010494753,-0.10172892472846692,-0.1600402903052565,-0.5703934698610765,-0.799180593415806,
1.5825467893786812E12,1.642130460801915,9.084380610412927,3.1382405745062836,30.085017212992064,-10.23230055380931,21.144738811555158,-0.2593703148425787,0.1634182908545727,0.1664167916041979,-0.09844456762253415,-0.16488314270312446,-0.5729067504831926,-0.7968061694093125,
1.582546789398202E12,2.2238180730101735,8.955116696588869,3.5882704967085575,39.03158209848825,-1.7590181110612184,27.75542583445592,-0.27136431784107945,0.1649175412293853,0.1634182908545727,-0.09216307218397272,-0.1700611938932504,-0.575020109499294,-0.7949446723694887,
1.5825467894177227E12,2.178336325553561,8.993417115499701,2.779174147217235,47.749139350396646,4.2867834156563385,31.343212093997902,-0.2593703148425787,0.16041979010494753,0.1634182908545727,-0.08509307034567995,-0.17485424369230268,-0.579976614945836,-0.7910829848744739,
1.5825467894372434E12,1.625374027528426,9.548773189706763,2.6546977857570315,49.703337823679085,-6.781918874419997,35.52641820086813,-0.2623688155922039,0.17541229385307347,0.15142428785607195,-0.07939129483075912,-0.1796841410756792,-0.5857692398290362,-0.7863110258804107,
1.5825467894567642E12,1.666068222621185,9.637342908438061,1.6062238180730102,54.37509354886993,-11.316270019458164,37.114204460410114,-0.2638680659670165,0.17391304347826086,0.16041979010494753,-0.07404678467759633,-0.18582752922918117,-0.5931847610451711,-0.7798185957793458,
1.582546789476285E12,1.3117893476959903,10.017953321364452,1.7307001795332135,56.695704235892826,-21.346804370603202,38.19817392605897,-0.25487256371814093,0.17091454272863568,0.15292353823088456,-0.07028727359219088,-0.19241272951657232,-0.6004969565462537,-0.7729427183625225,
1.5825467894958057E12,2.2453620586475163,9.80490724117295,1.7330939557151406,60.68043706032031,-21.820086813351296,41.343212093997906,-0.2578710644677661,0.1679160419790105,0.16041979010494753,-0.06512429597147235,-0.20088489072709015,-0.6071676902490395,-0.7659970513451287,
1.5825467895153267E12,2.5374027528426093,10.075403949730699,1.9245960502692998,63.97814698398444,-18.690315820984882,44.289776979494086,-0.2563718140929535,0.15892053973013492,0.1634182908545727,-0.059297315627349356,-0.2093745148313614,-0.6132695159591542,-0.759306684873607,
1.5825467895348474E12,2.9036505086774387,10.252543387193297,1.6876122082585279,66.4208950755875,-18.934590630145188,47.05313575812004,-0.25337331334332835,0.17391304347826086,0.1649175412293853,-0.05279615468575769,-0.21844291825236983,-0.6194277787331676,-0.7521997636595481,
1.5825467895543682E12,2.9323758228605623,10.633153800119688,1.5344105326152004,67.85600957940429,-22.155964675946713,48.289776979494086,-0.25487256371814093,0.1649175412293853,0.17091454272863568,-0.04707246457470442,-0.22771988517812838,-0.6254993180799868,-0.7447673731137762,
1.582546789573889E12,2.4584081388390184,11.31538001196888,1.644524236983842,68.39036072444244,-31.728483759916177,52.289776979494086,-0.2578710644677661,0.17841079460269865,0.1649175412293853,-0.04294969667334414,-0.2368490462784447,-0.6313820802798408,-0.7371665493863376,
1.5825467895934097E12,2.410532615200479,11.57151406343507,1.5727109515260322,71.01631492291574,-40.3849723095345,52.71725789552462,-0.2623688155922039,0.1829085457271364,0.15892053973013492,-0.03985762727346323,-0.24636469594908542,-0.6373997822844985,-0.7289974785153365,
1.5825467896129304E12,2.963494913225613,11.588270496708558,1.163375224416517,78.69570423589283,-39.148331088160454,57.7401586588834,-0.25337331334332835,0.18440779610194902,0.1679160419790105,-0.035434367583972656,-0.25722585850770024,-0.6437696056110429,-0.7198193927648121,
1.5825467896324512E12,2.0466786355475763,12.119688809096349,1.16098144823459,86.45142942673253,-46.81245322556503,57.99970064361622,-0.2608695652173913,0.18440779610194902,0.1679160419790105,-0.03326812233218912,-0.2670050329929826,-0.6511967151735479,-0.7096086122223206,
1.582546789651972E12,2.491921005385996,12.359066427289049,1.381208856971873,94.34455919772489,-51.13306391258793,61.77069301002844,-0.2608695652173913,0.18590704647676162,0.17091454272863568,-0.03090279819947211,-0.27758322369349786,-0.6580742830147418,-0.699235875096524,
1.5825467896714927E12,2.4464392579293834,13.211250748055056,2.178336325553561,101.85600957940429,-56.17123185151923,65.16000598712768,-0.2593703148425787,0.20689655172413793,0.17691154422788605,-0.029415265972422198,-0.28773182118669827,-0.6638603620363474,-0.6896626428343987,
1.5825467896910134E12,2.2405745062836626,15.55475763016158,4.043087971274685,118.16135309085466,-63.026193683580296,65.55695255201317,-0.2638680659670165,0.1874062968515742,0.17541229385307347,-0.027927155514035105,-0.29801123002600066,-0.6703472750820252,-0.6790021439976377,
1.5825467897105344E12,2.4488330341113107,16.2752842609216,5.721125074805506,131.27585690764855,-78.4613081873971,73.96916629247119,-0.2563718140929535,0.19640179910044978,0.18140929535232383,-0.025595215084771895,-0.3118054432828548,-0.6770386288482177,-0.6661388335409307,
1.5825467897300552E12,0.7851585876720526,14.422501496110113,4.2274087372830635,138.14608591528216,-105.36207154617571,73.77069301002844,-0.26686656671664166,0.21889055472263869,0.19040479760119938,-0.027092982250737217,-0.3277372724838139,-0.6851882747810177,-0.6499009760265357,
1.582546789749576E12,1.2447636146020347,14.29802513464991,2.9036505086774387,146.55829965574017,-149.22466696602305,61.52641820086813,-0.26686656671664166,0.2128935532233883,0.191904047976012,-0.03501989058042876,-0.34675126870711986,-0.6943015252933132,-0.6296686087849038,
1.5825467897690967E12,5.091561938958708,15.272292040694195,3.3656493117893476,152.23768896871726,-141.988025744649,45.05313575812004,-0.2833583208395802,0.22488755622188905,0.1934032983508246,-0.03997915332800099,-0.36461989682709844,-0.702057899513589,-0.6103840625930036,
1.5825467897886174E12,2.858168761220826,13.12986235786954,5.850388988629563,115.47433019009131,-132.65978146983986,26.518784613081873,-0.2788605697151424,0.22788605697151423,0.20089955022488756,-0.048128141158108005,-0.37915035089890353,-0.7078601337626975,-0.5940224949203182,
1.5825467898081382E12,3.516457211250748,9.4721723518851,-0.1843207660083782,112.39036072444244,-116.17123185151922,11.663822781020805,-0.280359820089955,0.2368815592203898,0.2143928035982009,-0.055860528995725016,-0.3898623325033274,-0.712948112599786,-0.5801654520356979,
1.582546789827659E12,3.8467983243566723,8.447636146020347,-2.7528426092160383,106.54303248016764,-74.26283490495435,8.686723544379584,-0.29685157421289354,0.24137931034482757,0.21139430284857572,-0.056261607921883096,-0.39886222387687237,-0.7214806915611794,-0.563213254054308,
1.5825467898471797E12,3.6433273488928783,7.8683423099940155,-4.086175942549372,74.92471186948062,-30.491842538542134,15.526418200868132,-0.3028485757121439,0.2338830584707646,0.2098950524737631,-0.05261856791202077,-0.40459392334124517,-0.7279678658312984,-0.5509971232440797,
1.5825467898667004E12,3.2124476361460204,6.573309395571514,0.5266307600239377,48.955246220625654,23.88983685077084,10.060769345906301,-0.29385307346326833,0.2338830584707646,0.21739130434782608,-0.04517967367816091,-0.401773252632272,-0.7274558679494322,-0.5543870585985551,
1.5825467898862212E12,2.3650508677438657,4.703770197486535,1.1944943147815679,10.451429426732526,50.11884448435863,7.205807513845233,-0.29685157421289354,0.22638680659670163,0.20689655172413793,-0.0374396272391897,-0.39581190094004465,-0.7241744629145681,-0.563473655683046,
1.582546789905742E12,-1.0724117295032913,4.732495511669659,2.2621184919210053,-31.136356832809458,65.44708875916778,-16.275108516689116,-0.29235382308845576,0.24437781109445278,0.19490254872563717,-0.03690589473423434,-0.3834243141488773,-0.7212181299401363,-0.575732715154334,
1.582546789925263E12,-1.0077797725912627,4.871334530221424,1.9796529024536205,-68.26612782517586,70.8211345606945,-37.19113905104026,-0.29535232383808097,0.25337331334332835,0.20689655172413793,-0.040626158969329904,-0.3672940382279713,-0.7157202656732097,-0.5926121041577354,
1.5825467899447837E12,-1.4673847995212448,4.418910831837223,2.2094554159186117,-103.83864690914533,56.21044753779375,-60.44304744798683,-0.29385307346326833,0.24437781109445278,0.1934032983508246,-0.05069255770295469,-0.3492041549929221,-0.707731293843823,-0.6120483138146531,
1.5825467899643044E12,-2.0323159784560145,4.304009575104728,2.302812687013764,-140.37299805418348,29.615027690465496,-79.92396347852117,-0.2908545727136432,0.25037481259370314,0.19640179910044978,-0.06846340164290851,-0.3306966916534166,-0.6964466434608398,-0.6331781215243439,
1.5825467899838252E12,-1.8360263315380012,5.060442848593657,2.312387791741472,-171.60963927555753,16.011974255350996,-100.47358179913186,-0.29985007496251875,0.24137931034482757,0.19040479760119938,-0.0920077525619793,-0.3097327664140001,-0.6817072890369649,-0.6564109680313822,
1.582546790003346E12,-1.158587672052663,6.513464991023339,1.9030520646319569,-206.43406675647356,11.447088759167789,-115.58808561592575,-0.2983508245877061,0.24137931034482757,0.20389805097451275,-0.12016267430891496,-0.2854581689505683,-0.6622647013828197,-0.6822609697063455,
1.5825467900228667E12,-0.5745062836624776,7.439856373429084,1.424296828246559,-229.31956293967968,12.073042957641071,-124.41251309684179,-0.30134932533733133,0.2368815592203898,0.20539730134932532,-0.150031443825665,-0.25827029420784636,-0.6396964826914465,-0.70821990301429,
1.5825467900423875E12,0.11490125673249552,9.03411131059246,1.4865350089766607,-247.79284538242777,26.5768597515342,-127.54228408920821,-0.3088455772113943,0.22038980509745126,0.20689655172413793,-0.17600624388898373,-0.23001437625610688,-0.6149504769403382,-0.7334514978773009,
1.5825467900619082E12,1.0125673249551166,11.028126870137642,0.8689407540394973,-259.8844484358629,44.92800478970214,-129.64915431821584,-0.3148425787106447,0.21589205397301348,0.21739130434782608,-0.19670564184729092,-0.20272960450400912,-0.5901107000495834,-0.7562915837228945,
1.582546790081429E12,0.9192100538599641,12.952722920406941,0.17235188509874327,-269.6249064511301,51.721897919473136,-132.6415207304296,-0.3193403298350824,0.22638680659670163,0.22638680659670163,-0.21631422946316334,-0.1744197750883807,-0.5643341639109963,-0.7773756155377869,
1.5825467901009497E12,1.8336325553560742,14.867743865948533,-0.5625374027528426,-278.8157461457866,43.84403532405329,-133.64915431821584,-0.32233883058470764,0.2128935532233883,0.2353823088455772,-0.23563386123176022,-0.1475154865199699,-0.5362217279783246,-0.7969831385429229,
1.5825467901204705E12,3.6983842010771992,17.146618791143027,-1.1059245960502693,-276.739410267924,54.82113456069451,-130.39724592126927,-0.3103448275862069,0.20239880059970014,0.23238380809595202,-0.2520823471318734,-0.12030575325891527,-0.5076808171066142,-0.8150099410063972,
1.5825467901399915E12,4.531418312387792,19.16457211250748,-2.4392579293836025,-258.2203262984583,40.424187995809014,-118.76365813500972,-0.3268365817091454,0.19940029985007496,0.2338830584707646,-0.2670634208863325,-0.09681244947180905,-0.4802700995954646,-0.8298464377740744,
1.5825467901595122E12,7.14063435068821,18.116098144823457,-4.349491322561341,-227.07528813051937,76.424187995809,-101.17587187546773,-0.31634182908545727,0.1874062968515742,0.22188905547226387,-0.27517903247863323,-0.07182404794087359,-0.45789948627635474,-0.8422860955099286,
1.582546790179033E12,6.848593656493118,16.354278874925193,-5.4889287851585875,-194.34246370303845,108.66846280496931,-92.07663523424637,-0.32533733133433285,0.17841079460269865,0.20389805097451275,-0.2786488553547646,-0.044303337160697176,-0.44132550007764637,-0.8518355667070497,
1.5825467901985537E12,8.1508078994614,15.533213644524237,-6.173548773189706,-150.57147133662625,105.6913635683281,-77.37434515791048,-0.32083958020989506,0.17691154422788605,0.191904047976012,-0.2792807166257028,-0.020796957790330837,-0.43038774250123396,-0.8581003198766405,
1.5825467902180745E12,8.840215439856372,13.697187312986236,-5.51047277079593,-100.98368507708426,93.64556204161053,-52.290375692261634,-0.3193403298350824,0.19490254872563717,0.17991004497751123,-0.27642809189095024,-0.0037306919027948237,-0.4256283693688397,-0.8616345415197081,
1.5825467902375952E12,8.804308797127469,10.922800718132855,-5.737881508078995,-49.77757820685526,74.71426433168688,-18.24457416554408,-0.31334332833583206,0.1619190404797601,0.17541229385307347,-0.2696599696943702,0.005285108166027091,-0.4271804312165374,-0.8630019974262851,
1.582546790257116E12,7.473369239976062,9.802513464991023,-5.438659485338121,-4.0523873671606045,35.233348301152525,13.999700643616224,-0.3043478260869565,0.1829085457271364,0.1619190404797601,-0.26102183462204964,0.004357392659235715,-0.4338268278212276,-0.8623473189164117,
1.5825467902766367E12,7.954518252543387,10.022740873728306,-5.520047875523638,40.634635533602754,-6.369705133961982,39.87756323903607,-0.29685157421289354,0.1874062968515742,0.15142428785607195,-0.25156274247468674,-0.006612318126205661,-0.4450120752990851,-0.8594397690854277,
1.5825467902961575E12,8.816277678037103,10.582884500299222,-4.543387193297427,78.48196377787757,-6.919323454572669,73.11420446041012,-0.3088455772113943,0.18140929535232383,0.15592203898050974,-0.2370156481892455,-0.022159121037000015,-0.4609551207566298,-0.8548993698187759,
1.5825467903156782E12,-1.9245960502692998,14.041891083183723,9.65409934171155,60.86364316719054,-32.15596467594671,64.57985331537195,-0.2908545727136432,0.1934032983508246,0.15142428785607195,-0.22665415200397718,-0.03528609129968945,-0.4707525764476629,-0.8519241743887981,
1.582546790335199E12,-6.228605625374027,15.255535607420706,3.97606223818073,84.16135309085466,-31.270468492740605,54.930998353539884,-0.29985007496251875,0.191904047976012,0.15742128935532235,-0.2201557715713478,-0.04514611998114454,-0.4863012265574473,-0.8443958675545464,
1.58254679035472E12,3.707959305804907,12.608019150209454,-1.5655296229802513,92.48196377787757,55.798233797335726,65.72489148331088,-0.2983508245877061,0.1889055472263868,0.1619190404797601,-0.20209940010708027,-0.04974787920117903,-0.5058562307988942,-0.837132280319711,
1.5825467903742407E12,-0.93836026331538,7.631358467983244,4.093357271095153,62.84837599161803,-5.743750935488699,70.93099835353989,-0.29235382308845576,0.20089955022488756,0.15592203898050974,-0.18996118156413258,-0.05868724891964105,-0.5158368917608317,-0.8332963802942666,
1.5825467903937615E12,7.1334530221424295,9.244763614602034,0.10293237582286056,49.36745996108367,56.19518036222122,81.20580751384523,-0.29235382308845576,0.1889055472263868,0.15892053973013492,-0.16827192441495567,-0.06590636676501448,-0.5263768599083825,-0.8308238752145453,
1.5825467904132822E12,-0.08138839018551765,12.49311789347696,2.841412327947337,45.96287980841191,-6.354437958389463,53.480616674150575,-0.2833583208395802,0.19940029985007496,0.15442278860569714,-0.15904601561627252,-0.07399782073127223,-0.5356310443402268,-0.8260315198481284,
1.582546790432803E12,1.151406343506882,9.484141232794734,2.563734290843806,38.573566831312675,-29.117796737015418,46.18290675048645,-0.28785607196401797,0.20089955022488756,0.1424287856071964,-0.15196814725736169,-0.08572472084360534,-0.542359366774745,-0.821829222969802,
1.5825467904523237E12,1.0173548773189707,9.771394374625972,2.771992818671454,31.65753629696153,-22.53764406525969,40.24397545277653,-0.2848575712143928,0.20689655172413793,0.14692653673163417,-0.14552177016769718,-0.09536244202012314,-0.5480478971752684,-0.8181521383342986,
1.5825467904718445E12,0.8521843207660084,10.252543387193297,2.556552962298025,29.01631492291573,-7.316270019458165,38.656189193234546,-0.2893553223388306,0.2083958020989505,0.14692653673163417,-0.13838838587253016,-0.10203452775747371,-0.553915279237563,-0.8146259713685033,
1.5825467904913652E12,1.0484739676840216,10.008378216636745,2.884500299222023,28.00868133512947,5.813500972908247,36.656189193234546,-0.2893553223388306,0.19940029985007496,0.14842578710644677,-0.1302780217350229,-0.10682213225374484,-0.5591928096923439,-0.8117389178189957,
1.582546790510886E12,1.0101735487731898,9.520047875523638,3.1406343506882104,25.245322556503517,-4.3849723095345015,32.030234994761265,-0.280359820089955,0.21139430284857572,0.1409295352323838,-0.12377265291313018,-0.11219720544432252,-0.5633082967517723,-0.8091822293475974,
1.5825467905304067E12,1.0700179533213645,9.524835427887492,3.3297426690604426,22.878910342763056,-19.606346355336026,26.824128124532255,-0.2833583208395802,0.21139430284857572,0.14842578710644677,-0.11965023377613565,-0.11904575085135354,-0.5661872489937304,-0.8068109628893656,
1.5825467905499275E12,1.8168761220825853,9.599042489527228,3.087971274685817,21.718604999251607,-19.92695704235893,23.709624307738363,-0.2788605697151424,0.2128935532233883,0.15142428785607195,-0.1153540877515955,-0.12679202121342847,-0.5688748914524436,-0.8043622167099727,
1.5825467905694485E12,1.668461998803112,9.565529622980252,2.6953919808497906,22.31402484657985,-20.461308187397098,21.984433468043704,-0.2833583208395802,0.20239880059970014,0.15142428785607195,-0.11185414585003285,-0.1338642430060469,-0.5720979058419222,-0.8014193662695361,
1.5825467905889692E12,1.4985038898862957,9.563135846798325,2.748055056852184,23.794940877114204,-27.178865439305493,19.4195479718605,-0.2833583208395802,0.2083958020989505,0.15142428785607195,-0.10963702308099939,-0.14103186864704792,-0.5753020792499175,-0.7981962495568241,
1.58254679060849E12,1.7953321364452424,9.433871932974267,2.9539198084979055,22.939979045053136,-31.362071546175716,17.75542583445592,-0.28785607196401797,0.20239880059970014,0.15742128935532235,-0.10783970850787274,-0.14895917193884609,-0.5774773880826831,-0.7954254387542761,
1.5825467906280107E12,1.8312387791741471,9.601436265709156,2.6044284859365647,22.35982637329741,-27.835353988923814,15.847028887891033,-0.2863568215892054,0.21589205397301348,0.1454272863568216,-0.10594397728084938,-0.15571369020504547,-0.5804897698964335,-0.7921873183826083,
1.5825467906475315E12,1.426690604428486,9.673249551166966,2.398563734290844,22.03921568627451,-27.468941775183357,14.74779224666966,-0.28785607196401797,0.21589205397301348,0.15592203898050974,-0.10503235705723946,-0.16154048169789398,-0.5837182737441061,-0.7887622288376985,
1.5825467906670522E12,1.402752842609216,9.66128067025733,2.3052064631956912,24.222421793144736,-24.72085017212992,16.778326597814697,-0.29235382308845576,0.2098950524737631,0.15292353823088456,-0.10363568934705548,-0.16696148905081548,-0.5872101670797348,-0.7852182656724721,
1.582546790686573E12,1.5080789946140036,9.666068222621185,2.362657091561939,26.756772938182905,-20.461308187397098,19.175273162700194,-0.2893553223388306,0.2128935532233883,0.1634182908545727,-0.10156362050127374,-0.1722329313578175,-0.5905861732392554,-0.7818111155037248,
1.5825467907060938E12,1.8049072411729503,9.587073608617594,2.34590065828845,31.062116449633287,-19.942224217931447,20.10657087262386,-0.2908545727136432,0.21139430284857572,0.15442278860569714,-0.09872835441945309,-0.1777885202980388,-0.5942750727098087,-0.7781266555257004,
1.5825467907256145E12,1.4793536804308798,9.505685218432076,2.2597247157390785,34.61936835803023,-28.659781469839842,19.618021254303248,-0.2908545727136432,0.20689655172413793,0.1649175412293853,-0.09757868258961587,-0.18387227539615936,-0.5981538176338634,-0.7738742775766286,
1.5825467907451353E12,1.7330939557151406,9.417115499700778,2.2549371633752244,39.33692560993863,-30.7055829965574,21.816494536745996,-0.29685157421289354,0.2098950524737631,0.1679160419790105,-0.09590713535552131,-0.19077883289904288,-0.6021044953050071,-0.7693344104088152,
1.582546790764656E12,2.2453620586475163,9.390783961699581,2.159186116098145,43.45906301451878,-22.85825475228259,25.999700643616226,-0.2908545727136432,0.2143928035982009,0.17241379310344826,-0.09213958336521864,-0.19805928504152617,-0.606093000164665,-0.7648098403770174,
1.582546790784177E12,2.312387791741472,9.52722920406942,1.9652902453620587,47.1537195030684,-17.57581200419099,29.4195479718605,-0.29535232383808097,0.21739130434782608,0.15892053973013492,-0.08717505266774499,-0.20455127101531928,-0.6109092217796833,-0.7598349889699311,
1.5825467908036978E12,2.326750448833034,9.666068222621185,1.864751645721125,50.634635533602754,-17.606346355336026,30.73252507109714,-0.29235382308845576,0.21589205397301348,0.1679160419790105,-0.08236926064664786,-0.21112091638951883,-0.6158527039590567,-0.7545652460786231,
1.5825467908232185E12,2.578096947935368,9.74985038898863,1.8216636744464392,54.634635533602754,-21.163598263732975,34.15237239934142,-0.2908545727136432,0.22038980509745126,0.16941529235382308,-0.077225383872015,-0.2186937381601747,-0.6207120982954233,-0.748949784701913,
1.5825467908427393E12,2.9204069419509273,9.814482345900657,1.8049072411729503,58.329292022152366,-21.026193683580303,37.14473881155516,-0.2908545727136432,0.21889055472263869,0.1634182908545727,-0.07117327190566644,-0.22668884121676508,-0.6254956844167993,-0.7431700232181072,
1.58254679086226E12,2.858168761220826,10.089766606822263,1.646918013165769,61.45906301451878,-19.468941775183357,39.923364765753625,-0.2848575712143928,0.21889055472263869,0.1634182908545727,-0.06507362015061932,-0.23425682690832986,-0.6306105435957967,-0.7370342633237259,
1.5825467908817808E12,3.018551765409934,10.606822262118492,1.400359066427289,66.10028438856459,-20.598712767549767,43.618021254303244,-0.2908545727136432,0.21139430284857572,0.16041979010494753,-0.05868372408977197,-0.24208274123712964,-0.6363808001712893,-0.7300490696490353,
1.5825467909013015E12,2.128067025733094,11.097546379413524,1.3093955715140635,70.32929202215237,-21.88115551564137,42.839395300104776,-0.29385307346326833,0.2083958020989505,0.1679160419790105,-0.054442472453264466,-0.2481444453541124,-0.64295323475981,-0.7225451469250708,
1.5825467909208223E12,2.2740873728306403,11.521244763614602,0.9048473967684021,77.59646759467147,-23.591079179763508,48.12183804819637,-0.28785607196401797,0.2098950524737631,0.15742128935532235,-0.0493380983763374,-0.2550438877777586,-0.6504397772667799,-0.7137551845730822,
1.582546790940343E12,2.1687612208258527,11.734290843806104,0.8809096349491322,84.48196377787757,-26.339170782816943,50.03023499476126,-0.2908545727136432,0.22488755622188905,0.16941529235382308,-0.04487506814464306,-0.2620088417739957,-0.6581016793633552,-0.7044428825038936,
1.5825467909598638E12,2.5493716337522443,12.08617594254937,1.0652304009575104,92.23768896871726,-28.629247118694806,53.46534949857806,-0.2893553223388306,0.22338830584707645,0.15892053973013492,-0.03975756353329843,-0.2693037957381144,-0.6655685173532372,-0.6949196719414075,
1.5825467909793848E12,2.618791143028127,12.442848593656493,1.7618192698982644,99.35219278551115,-37.92695704235892,57.847028887891035,-0.29235382308845576,0.22338830584707645,0.1649175412293853,-0.03573707583537617,-0.2771043774111423,-0.6716164636277584,-0.6861977493510624,
1.5825467909989055E12,2.17115499700778,13.721125074805505,2.573309395571514,108.023948510702,-48.61397994312228,60.56458613979943,-0.29535232383808097,0.22488755622188905,0.1619190404797601,-0.033307644464724534,-0.28500180702669276,-0.6777880314339869,-0.6769549137546546,
1.5825467910184263E12,1.646918013165769,17.299820466786354,4.464392579293836,123.64226912138902,-53.78955246220625,56.01496781918874,-0.28785607196401797,0.21739130434782608,0.1634182908545727,-0.03168810657848973,-0.29279364209018516,-0.6854992879889934,-0.6658516901079532,
1.582546791037947E12,1.20885697187313,17.333333333333332,4.931178934769599,133.61173477024397,-73.43840742403832,63.49588384972309,-0.2893553223388306,0.22188905547226387,0.1679160419790105,-0.030934868642288005,-0.30397480582234665,-0.6935945203948617,-0.6523564919624643,
1.5825467910574678E12,0.6846199880311191,14.740873728306402,3.1190903650508677,147.27585690764855,-85.08726238587037,65.11420446041012,-0.29535232383808097,0.23238380809595202,0.17241379310344826,-0.031355416982054386,-0.316267521262865,-0.703266171981882,-0.6359311158970556,
1.5825467910769885E12,0.696588868940754,15.353680430879713,2.587672052663076,160.60410118245773,-111.54527765304594,58.12183804819637,-0.29985007496251875,0.22188905547226387,0.17541229385307347,-0.03519666610081229,-0.3305210819712482,-0.7142323666445618,-0.6159457244800483,
1.5825467910965093E12,5.199281867145422,16.186714542190305,4.49311789347696,140.64990270917528,-79.48420895075587,42.106570872623855,-0.3028485757121439,0.21739130434782608,0.16941529235382308,-0.03371885938861731,-0.3417469985784192,-0.7213586636797359,-0.6014263926852216,
1.58254679111603E12,4.414123279473369,12.945541591861161,3.4207061639736684,127.5506660679539,-84.65978146983984,30.53405178865439,-0.29685157421289354,0.21589205397301348,0.18140929535232383,-0.034765620468510554,-0.35218613612171856,-0.7274972567057464,-0.5877958987971142,
1.5825467911355508E12,3.1502094554159186,10.28126870137642,0.7420706163973668,119.65753629696154,-73.4231402484658,12.305044155066607,-0.2983508245877061,0.2128935532233883,0.17241379310344826,-0.03763710085050724,-0.35784104657129584,-0.7339404127621214,-0.576076995325187,
1.5825467911550715E12,4.124476361460204,8.96947935368043,-0.6511071214841412,105.71860499925161,-5.0567280347253405,5.999700643616225,-0.29985007496251875,0.22038980509745126,0.18140929535232383,-0.030436481379309266,-0.3581275730601671,-0.7389682144363413,-0.5698633521012272,
1.5825467911745923E12,3.293836026331538,6.953919808497905,-3.0161579892280073,78.61936835803024,28.74479868283191,-2.2293069899715614,-0.29385307346326833,0.21739130434782608,0.17841079460269865,-0.021537935857598157,-0.35605817391757955,-0.746696776931151,-0.5614290849484942,
1.5825467911941133E12,3.791741472172352,5.436265709156194,0.7253141831238779,45.93234545726688,20.24098188893878,-2.687322257147134,-0.30134932533733133,0.22488755622188905,0.17091454272863568,-0.01362404412068865,-0.3537489009724182,-0.7461667548923324,-0.5638362123667205,
1.582546791213634E12,1.4554159186116098,4.682226211849192,1.9461400359066428,2.0544828618470286,42.39365364466397,-15.389612333483011,-0.2983508245877061,0.2143928035982009,0.15742128935532235,-0.010631357694942807,-0.34517947781982383,-0.7438624042978013,-0.5721947446437189,
1.5825467912331548E12,-0.27767803710353084,4.533812088569719,1.7642130460801915,-36.28139500074839,29.492890285885345,-38.015566531956296,-0.29235382308845576,0.2083958020989505,0.15742128935532235,-0.01635692198324139,-0.333604987134391,-0.7402663563176857,-0.5834774077600898,
1.5825467912526755E12,-0.7516457211250748,4.1508078994614,1.869539198084979,-75.85391408471784,24.36311929351893,-60.67205508157461,-0.29385307346326833,0.2128935532233883,0.16041979010494753,-0.02755615678797428,-0.31939109451939357,-0.733974652022022,-0.5987580455859713,
1.5825467912721963E12,-1.199281867145422,3.8874925194494314,1.9150209455415919,-116.3729980541835,5.981439904205956,-78.53465050142194,-0.2818590704647676,0.22488755622188905,0.15742128935532235,-0.04543458591177834,-0.30429597592473207,-0.7241469117609252,-0.6172122063165592,
1.582546791291717E12,-0.9192100538599641,4.136445242369838,1.3883901855176541,-152.9378835503667,-2.3086364316719052,-94.32091004340667,-0.28785607196401797,0.21739130434782608,0.16941529235382308,-0.06869006617356284,-0.28683808382765175,-0.7102633968077795,-0.6391646858441314,
1.5825467913112378E12,-0.6032315978456014,4.998204667863555,1.0700179533213645,-185.48750187097738,-2.965124981290226,-105.37434515791048,-0.2983508245877061,0.21739130434782608,0.1664167916041979,-0.09531094869833574,-0.2662663462705782,-0.6921263541212519,-0.6640626219211279,
1.5825467913307585E12,-0.7301017354877318,6.276481149012567,1.0317175344105325,-209.54857057326745,3.630294866038018,-119.389612333483,-0.29535232383808097,0.22188905547226387,0.17391304347826086,-0.12399207784184366,-0.2418204415924059,-0.6711866281471088,-0.6896791637109466,
1.5825467913502793E12,0.31358467983243565,7.956912028725314,1.2423698384201076,-237.5791049244125,10.515791049244124,-120.73312378386468,-0.29685157421289354,0.22788605697151423,0.18140929535232383,-0.14996460428224423,-0.2172321325347632,-0.6448756519186113,-0.7172560293363974,
1.5825467913698E12,0.7157390783961699,9.682824655894674,0.7492519449431478,-254.40353240532855,24.72953150725939,-119.51174973806316,-0.2983508245877061,0.2338830584707646,0.19940029985007496,-0.17129029825693007,-0.19393606213547251,-0.6187830944122462,-0.7417249622306391,
1.5825467913893208E12,0.9886295631358468,10.819868342309993,-0.5146618791143028,-263.9607843137255,42.668462804969316,-119.66442149378835,-0.29685157421289354,0.22938530734632684,0.19940029985007496,-0.18917796699192752,-0.1692950879711732,-0.5929706422300969,-0.764157501727792,
1.5825467914088418E12,0.8689407540394973,12.600837821663674,-1.1298623578695393,-271.7012423289927,48.63792845382428,-122.36671157012422,-0.29535232383808097,0.22188905547226387,0.19940029985007496,-0.2062540005454735,-0.1432229348767117,-0.5659322634914704,-0.7852815745474422,
1.5825467914283625E12,2.4081388390185516,14.563734290843806,-1.7881508078994615,-273.7012423289927,62.31731776680138,-118.16823828768148,-0.2983508245877061,0.21889055472263869,0.19790104947526235,-0.2199808314463505,-0.11647018868107407,-0.538000940241937,-0.8053558947717209,
1.5825467914478833E12,5.098743267504489,16.825852782764812,-2.812687013764213,-261.76231103128276,83.99670707977847,-113.23694057775782,-0.29535232383808097,0.21739130434782608,0.2098950524737631,-0.22957952711875862,-0.08868821473873797,-0.5113310513886764,-0.8233882420706126,
1.582546791467404E12,6.496708557749851,17.345302214242967,-4.234590065828845,-237.93024996258043,119.08067654542732,-102.51938332584942,-0.29535232383808097,0.22188905547226387,0.20539730134932532,-0.2335934271700719,-0.05808458471635761,-0.4885471989765327,-0.838678678740227,
1.5825467914869248E12,6.403351286654698,16.809096349491323,-4.509874326750449,-204.06765454273312,157.4623559347403,-96.58045202813949,-0.2848575712143928,0.21589205397301348,0.20089955022488756,-0.23276137604752467,-0.023924062972166198,-0.47142107591596716,-0.8503010938565224,
1.5825467915064456E12,4.85936564931179,16.56253740275284,-3.947336923997606,-166.60200568777128,121.05014219428229,-87.84762760065858,-0.2908545727136432,0.22488755622188905,0.1934032983508246,-0.23310660210346976,0.0032176672672144567,-0.4578651730277116,-0.8579105093198451,
1.5825467915259663E12,6.556552962298025,15.62657091561939,-4.064631956912029,-125.21269271067204,91.20281395000748,-73.72549019607843,-0.2833583208395802,0.23088455772113942,0.1874062968515742,-0.23303530864261532,0.022515132899355594,-0.4486939949500766,-0.8624739489469267,
1.582546791545487E12,8.016756433273489,13.45541591861161,-3.3680430879712744,-91.3348301152522,69.4623559347403,-47.81709324951354,-0.2863568215892054,0.24587706146926536,0.1829085457271364,-0.23035649966175298,0.03441609925368725,-0.4432127027126362,-0.8656292019854144,
1.5825467915650078E12,10.094554159186115,10.67145421903052,-5.340514661879114,-42.556204161053735,46.363119293518935,-10.549917676994461,-0.27436281859070466,0.239880059970015,0.18140929535232383,-0.22391594893863193,0.03754225373252843,-0.4440214317245537,-0.8667740162031115,
1.5825467915845286E12,8.777977259126272,10.47277079593058,-4.090963494913225,-5.212692710672055,17.126478072144888,18.320311330639125,-0.2788605697151424,0.22788605697151423,0.18590704647676162,-0.21569374024039717,0.0327514251221632,-0.44925088942349795,-0.8663585821850969,
1.5825467916040493E12,6.623578695391981,10.010771992818672,-3.066427289048474,29.230055380930995,-19.010926508007785,37.43481514743302,-0.27136431784107945,0.239880059970015,0.1829085457271364,-0.20775812551076528,0.020360193714948422,-0.45841280461754685,-0.8638748314187755,
1.5825467916235703E12,6.475164572112507,10.458408138839019,-2.3889886295631357,59.4743301900913,-25.54527765304595,60.472983086364316,-0.27436281859070466,0.2338830584707646,0.1829085457271364,-0.1970376563698607,0.004136631855826592,-0.4714564406181953,-0.85958587403981,
1.582546791643091E12,-4.004787552363854,13.01735487731897,6.977857570317175,60.23768896871726,8.10357730878611,63.57221972758569,-0.272863568215892,0.23238380809595202,0.1829085457271364,-0.18620871555417803,-6.528508096725486E-4,-0.48419276934285105,-0.8549171013341494,
1.5825467916626118E12,-5.769000598444046,13.974865350089766,4.9694793536804305,61.00104774734321,-35.92695704235892,56.793593773387215,-0.2638680659670165,0.24287856071964017,0.18590704647676162,-0.1810952669009168,-0.009944838584260146,-0.49628065927454407,-0.849005955056643,
1.5825467916821326E12,-0.6822262118491921,12.598444045481747,-0.1891083183722322,77.32165843436611,21.004340667564733,56.80886094895973,-0.27586206896551724,0.2578710644677661,0.17691154422788605,-0.16912996773375952,-0.015479414453984156,-0.5132973750906031,-0.8412379250055455,
1.5825467917016533E12,0.5098743267504489,8.756433273488929,4.160383004189108,62.9094446939081,-14.339170782816943,63.64855560544829,-0.2788605697151424,0.24887556221889054,0.17841079460269865,-0.15749250274786303,-0.029437944273515197,-0.5231244310147094,-0.8370605406365184,
1.582546791721174E12,6.8940754039497305,8.96229802513465,1.2830640335128665,61.138452327495884,35.87456967519832,84.7783265978147,-0.2608695652173913,0.25487256371814093,0.17841079460269865,-0.1369662140137361,-0.04086522819622158,-0.5342766559023328,-0.8331378903285065,
1.5825467917406948E12,1.8336325553560742,10.087372830640335,3.571514063435069,51.24532255650352,20.042508606496032,67.84702888789103,-0.2623688155922039,0.25037481259370314,0.1664167916041979,-0.12161535396481743,-0.050118071218470936,-0.5431756475351375,-0.8292515303224568,
1.5825467917602156E12,1.180131657690006,9.579892280071814,2.939557151406343,43.59646759467145,-5.133063912587936,51.95389911689867,-0.2563718140929535,0.2593703148425787,0.17541229385307347,-0.11177148602449018,-0.06017030445568047,-0.5507816649014188,-0.8249401353928716,
1.5825467917797363E12,1.0173548773189707,10.108916816277677,3.4518252543387193,38.268223319862294,-17.713216584343662,48.99206705582996,-0.2563718140929535,0.24887556221889054,0.17691154422788605,-0.10406776951811818,-0.07117638083563463,-0.5563992910378533,-0.8212938883805472,
1.582546791799257E12,1.1107121484141234,10.101735487731897,2.317175344105326,37.33692560993863,3.9814399042059567,47.72489148331088,-0.2578710644677661,0.2578710644677661,0.17691154422788605,-0.09493964089986706,-0.07829456659358054,-0.5634872618308248,-0.8169079086299309,
1.5825467918187778E12,1.0460801915020945,10.355475763016157,2.324356672651107,35.00104774734321,21.76769944619069,48.167639574913935,-0.25337331334332835,0.2578710644677661,0.1679160419790105,-0.08440829486541401,-0.08245505821702374,-0.5703186487054956,-0.8129040792560204,
1.5825467918382988E12,0.6295631358467983,10.065828845002992,2.324356672651107,29.886543930549315,10.5768597515342,41.08367010926508,-0.25487256371814093,0.2608695652173913,0.1664167916041979,-0.07676677526134502,-0.08647204002552085,-0.5760657565856842,-0.8091833491855613,
1.5825467918578196E12,0.3758228605625374,9.816876122082585,2.762417713943746,24.86364316719054,-16.53764406525969,32.488250261936834,-0.2518740629685157,0.27586206896551724,0.16941529235382308,-0.07371304190048844,-0.09250351138940399,-0.5798698526287404,-0.8060771934788442,
1.5825467918773403E12,1.4434470377019748,9.962896469180132,2.599640933572711,20.16135309085466,-15.926957042358929,25.556952552013172,-0.24887556221889054,0.27136431784107945,0.1649175412293853,-0.07015144022082566,-0.09972233847944388,-0.5829103719286175,-0.8033366224324496,
1.582546791896861E12,1.9030520646319569,9.989228007181328,2.539796529024536,17.84074240383176,-9.133063912587936,19.87756323903607,-0.25337331334332835,0.272863568215892,0.17991004497751123,-0.06647807893188264,-0.10629637712254582,-0.5853070034045641,-0.8010602080978165,
1.5825467919163818E12,2.1448234590065827,9.742669060442848,2.283662477558348,16.69570423589283,-6.430773836252058,14.671456368807064,-0.2518740629685157,0.2638680659670165,0.17541229385307347,-0.06312710990629852,-0.11212496253058023,-0.5877673318050736,-0.7987318226007643,
1.5825467919359026E12,1.87672052663076,9.534410532615201,2.360263315380012,16.34455919772489,-12.293369256099385,10.24397545277653,-0.2518740629685157,0.2623688155922039,0.1634182908545727,-0.06130412036192614,-0.11744472269668209,-0.5900764333250155,-0.7964033806883156,
1.5825467919554233E12,2.087372830640335,9.474566128067025,2.362657091561939,18.8331088160455,-13.087262385870378,9.23634186499027,-0.25037481259370314,0.2623688155922039,0.1664167916041979,-0.05947734705424507,-0.12314200210689148,-0.5923755123301381,-0.7939708715665215,
1.582546791974944E12,2.044284859365649,9.512866546977857,2.4823459006582884,17.794940877114204,-9.4231402484658,9.221074689417751,-0.24737631184407796,0.26686656671664166,0.1679160419790105,-0.057500128075702095,-0.12810347065867336,-0.5941430223818365,-0.7920083995965301,
1.5825467919944648E12,2.1926989826451226,9.266307600239378,2.4272890484739675,18.5124981290226,-3.2399341415955694,11.465349498578057,-0.24137931034482757,0.2623688155922039,0.16941529235382308,-0.05445012894820953,-0.1328326432955314,-0.5956434142181801,-0.7903161363854054,
1.5825467920139856E12,1.82884500299222,9.378815080789947,2.3770197486535007,19.01631492291573,0.36311929351893424,14.488250261936836,-0.24887556221889054,0.2653673163418291,0.1649175412293853,-0.051415973701847244,-0.13605683023810775,-0.5975862732954197,-0.7885021132265541,
1.5825467920335063E12,1.177737881508079,9.587073608617594,2.736086175942549,20.726238587037866,-5.377338721748242,17.785960185600956,-0.24287856071964017,0.27136431784107945,0.17391304347826086,-0.05035704552967033,-0.13849169378643847,-0.5986658294909437,-0.7873267703549819,
1.5825467920530273E12,1.5559545182525434,9.402752842609216,2.535008976660682,23.35219278551115,-4.659781469839845,22.213441101631492,-0.24737631184407796,0.26836581709145424,0.1634182908545727,-0.04750441998198679,-0.142122717971926,-0.6004502682824765,-0.7854959824454542,
1.582546792072548E12,1.5415918611609813,9.548773189706763,2.405745062836625,27.642269121389013,-6.354437958389463,25.938631941326147,-0.24737631184407796,0.2698650674662669,0.17091454272863568,-0.04462957648649739,-0.14627862746692114,-0.6028195799662304,-0.7830832127292521,
